sub_num,trial_num,trial_type,relation1,relation2,pair1_word1,pair1_word2,pair2_word1,pair2_word2,rating,RT
1,1,between-subtype,9h,9b,ingestion,digestion,mine,coal,1,7623
1,2,between-subtype,4a,4g,rich,poor,hard,simple,1,7019
1,3,between-subtype,9d,9b,kitchen,pot,dairy,milk,1,8010
1,4,between-subtype,6h,6g,discourage,confident,hurry,lazily,1,14199
1,5,between-subtype,5a,5b,fire,heat,volatile,combustible,4,6833
1,6,within-subtype,8a,8a,accident,damage,injury,pain,5,9784
1,7,between-subtype,2g,2a,house,bricks,bicycle,wheel,7,4386
1,8,between-subtype,9g,9e,adulthood,job,margin,paper,1,4330
1,9,between-type,7c,9h,shooter,gun,step,journey,1,5117
1,10,within-subtype,3e,3e,associate,partner,puppy,dog,1,4366
1,11,attention check,,,coincidence,,knowledgeable,,1,10734
1,12,between-subtype,2f,2d,church,sanctuary,party,guests,1,5534
1,13,between-subtype,6b,6e,inexorable,halted,immortal,die,1,5401
1,14,between-type,1c,6c,beverage,water,deceit,truth,1,7299
1,15,between-subtype,9d,9a,sew,needle,store,products,3,4699
1,16,within-subtype,6b,6b,irreparable,fixed,transparent,opaque,7,5084
1,17,within-subtype,8c,8c,remote,tv,mouse,computer,7,4152
1,18,within-subtype,1d,1d,utensils,forks,bedding,sheets,7,3849
1,19,between-subtype,10a,10d,crossbones,poison,outline,paper,1,4383
1,20,between-subtype,5c,5e,idiot,stupidity,tree,grow,1,4114
1,21,within-subtype,6h,6h,teach,ignorant,groom,unkempt,7,5768
1,22,attention check,,,anthropologist,,anthropologist,,7,4201
1,23,between-type,10c,4f,crown,king,freezing,warm,1,5900
1,24,within-subtype,6e,6e,miser,splurge,miser,give,1,4967
1,25,within-subtype,1e,1e,city,Memphis,planet,Earth,7,3950
1,26,between-subtype,4g,4h,enthusiastic,lazy,scratch,cd,1,6165
1,27,within-subtype,9e,9e,bank,river,shore,lake,2,5767
1,28,within-subtype,5b,5b,fragrant,smelled,wooden,burned,7,3935
1,29,between-subtype,6a,6g,baby,mature,cooperate,defiantly,4,7247
1,30,within-subtype,6b,6b,impermeable,penetrated,irremediable,fixed,4,6418
1,31,between-subtype,2a,2b,bird,wings,pack,wolf,1,7866
1,32,between-subtype,4h,4d,tumor,body,under,over,1,3968
1,33,attention check,,,representations,,simultaneously,,1,3833
1,34,between-subtype,8b,8d,dirty,bathe,bathe,clean,1,5450
1,35,between-type,9f,3h,birthday,celebration,speed,movement,1,4117
1,36,within-subtype,4e,4e,free,imprisoned,windy,calm,7,6517
1,37,within-subtype,4e,4e,lazy,productive,mobile,inert,7,4067
1,38,between-subtype,5i,5c,stab,wound,pacifist,peace,5,6266
1,39,within-subtype,2i,2i,woman,penis,deaf,hearing,7,3851
1,40,within-subtype,5d,5d,mad,anger,pensive,thought,7,4333
1,41,within-subtype,6e,6e,immortal,die,cat,bark,7,6600
1,42,within-subtype,4g,4g,obey,protest,enthusiastic,lazy,7,5883
1,43,between-type,6e,4g,glutton,fast,obey,protest,1,4082
1,44,attention check,,,hummingbird,,hummingbird,,7,3587
1,45,between-subtype,5e,5f,rabbit,hop,intransigent,resist,5,7058
1,46,between-type,8f,9c,automobile,transportation,church,worship,7,4424
1,47,within-subtype,9d,9d,garage,car,office,computer,7,4100
1,48,between-subtype,6f,6a,awake,sleep,ecstasy,sad,7,4517
1,49,within-subtype,3h,3h,terror,fear,waning,sunlight,4,6151
1,50,between-subtype,5d,5c,emotional,turmoil,psychotic,insanity,7,5249
1,51,within-subtype,8c,8c,battery,phone,wood,fireplace,7,3916
1,52,within-subtype,9h,9h,introduction,speech,step,journey,2,4184
1,53,between-subtype,2c,2e,book,chapter,wrapping,taping,5,6335
1,54,within-subtype,5d,5d,drunk,intoxication,pensive,thought,7,3899
2,1,between-subtype,5g,5d,insult,unkind,illogical,confusion,6,5964
2,2,within-subtype,8b,8b,tiredness,rest,loneliness,socialize,7,6947
2,3,between-subtype,2a,2d,house,room,restaurant,chef,7,4188
2,4,between-subtype,4f,4e,earsplitting,quiet,evil,good,7,5314
2,5,within-subtype,7e,7e,pay,debtor,preach,parishioner,7,5969
2,6,between-type,9h,3d,previews,movie,negotiate,blackmail,6,8451
2,7,between-subtype,4d,4g,forward,backward,low,up,3,9123
2,8,between-type,6a,7h,heat,cold,wife,ring,1,4422
2,9,between-type,4g,6d,bright,dull,elderly,youth,7,3739
2,10,within-subtype,5f,5f,round,roll,golden,gleam,6,4523
2,11,attention check,,,anthropologist,,anthropologist,,7,6508
2,12,between-subtype,5c,5i,invalid,sickness,heat,warm,7,3622
2,13,within-subtype,4d,4d,rise,sink,under,over,7,3899
2,14,between-subtype,6h,6a,fill,empty,object,intangible,7,7270
2,15,between-subtype,5i,5a,sand,smooth,water,wet,7,3701
2,16,between-type,7h,6g,teacher,certificate,lie,honestly,1,5787
2,17,between-subtype,8c,8b,monitor,computer,dirty,bathe,1,5125
2,18,between-subtype,6b,6a,immovable,shaken,darkness,light,7,4074
2,19,between-type,2b,3e,class,student,child,adult,1,4119
2,20,between-subtype,5g,5i,withdrawal,timid,eat,satisfaction,6,6727
2,21,within-subtype,3h,3h,rise,tide,flood,water,4,5476
2,22,attention check,,,coincidence,,knowledgeable,,1,4830
2,23,between-subtype,6g,6h,speed,slowly,wash,dirty,3,6154
2,24,between-subtype,6c,6a,anxiety,contentedness,object,intangible,5,4747
2,25,within-subtype,7d,7d,write,paper,mend,clothing,5,5947
2,26,within-subtype,6g,6g,stare,intermittently,insult,kindly,1,5025
2,27,within-subtype,7b,7b,accountant,taxpayer,parent,child,6,8509
2,28,within-subtype,6h,6h,cure,disease,teach,ignorant,7,3647
2,29,within-subtype,2f,2f,river,delta,ship,deck,7,4760
2,30,between-subtype,9e,9g,guardrail,highway,senescence,cane,1,5769
2,31,between-subtype,6a,6h,careful,reckless,destroy,alive,4,5400
2,32,within-subtype,1a,1a,bird,robin,bush,azalea,7,4332
2,33,attention check,,,hummingbird,,hummingbird,,7,3556
2,34,between-type,4e,1a,perplexed,certain,rodent,mouse,1,4232
2,35,within-subtype,5e,5e,tree,grow,boxer,fight,7,3735
2,36,between-subtype,4f,4e,sterile,dirty,perplexed,certain,7,4363
2,37,within-subtype,8h,8h,immunization,disease,sun,darkness,1,5606
2,38,between-subtype,6g,6h,hurry,lazily,discourage,confident,7,5481
2,39,within-subtype,5c,5c,ice,cold,psychotic,insanity,7,3653
2,40,within-subtype,7g,7g,paper,pencil,clothes,iron,7,3827
2,41,between-subtype,5h,5f,drop,slippery,generous,give,6,6981
2,42,between-subtype,7g,7c,carpet,vacuum,surgeon,scalpel,7,3758
2,43,within-subtype,3g,3g,male,female,rooster,hen,7,4865
2,44,attention check,,,representations,,simultaneously,,1,3515
2,45,between-subtype,10f,10e,curtain,window,anthropology,people,3,5740
2,46,within-subtype,9d,9d,office,telephone,office,computer,7,3452
2,47,within-subtype,9e,9e,margin,paper,edge,cliff,7,3590
2,48,within-subtype,3c,3c,nudging,shoving,wet,saturated,7,4754
2,49,within-subtype,4e,4e,old,young,thin,chubby,7,3921
2,50,between-subtype,10a,10b,license,permission,yawn,boredom,6,5779
2,51,within-subtype,5d,5d,pensive,thought,drunk,intoxication,7,4498
2,52,between-subtype,1a,1c,dog,chihuahua,mammal,gorilla,7,4331
2,53,between-subtype,9h,9i,arrest,trial,foot,shoe,2,5482
2,54,within-subtype,9g,9g,morning,sunrise,elderly,retirement,7,4111
3,1,between-type,7d,4f,donate,charity,rage,happiness,1,5937
3,2,between-subtype,6h,6g,wash,dirty,speed,slowly,3,7201
3,3,within-subtype,3a,3a,raise,elevate,house,dwelling,4,7761
3,4,between-subtype,8d,8c,burnish,shine,chemical,firework,4,6085
3,5,within-subtype,10a,10a,wrinkle,age,cross,faith,6,5688
3,6,between-subtype,8d,8e,breathe,live,athlete,medal,4,5879
3,7,between-subtype,6e,6a,confidant,betray,love,hating,7,21851
3,8,within-subtype,9h,9h,introduction,conclusion,narrative,epilogue,4,6180
3,9,within-subtype,8h,8h,sunscreen,burns,moisturize,dryness,7,5240
3,10,within-subtype,7e,7e,instruct,subordinate,inspire,follower,6,19938
3,11,attention check,,,hummingbird,,hummingbird,,7,6712
3,12,between-subtype,1d,1e,birds,crows,city,Dallas,7,5946
3,13,within-subtype,4g,4g,bright,dark,smiling,sad,6,5833
3,14,within-subtype,8h,8h,sun,darkness,immunization,disease,7,5184
3,15,between-subtype,7a,7c,florist,flowers,writer,pen,6,7720
3,16,within-subtype,3b,3b,jog,run,affection,love,5,4645
3,17,within-subtype,10c,10c,recording,sound,signature,acknowledgment,5,10474
3,18,within-subtype,5a,5a,diamond,shiny,mogul,wealth,7,28618
3,19,within-subtype,1b,1b,garment,skirt,artwork,sculpture,7,14736
3,20,between-subtype,2i,2g,bird,lips,wall,bricks,4,7343
3,21,between-type,6c,2a,slavery,freedom,movie,scene,1,18142
3,22,attention check,,,coincidence,,knowledgeable,,1,6430
3,23,between-subtype,5e,5g,dynamite,explode,excitement,happy,3,6286
3,24,within-subtype,8f,8f,hug,comfort,medicine,recovery,6,5656
3,25,between-subtype,10b,10a,yawn,boredom,license,permission,5,5723
3,26,between-subtype,2h,2a,scholar,books,dog,tail,4,5736
3,27,between-subtype,5i,5h,fire,burnt,comfort,hurting,2,14049
3,28,between-subtype,5e,5g,rabbit,hop,laugh,happy,5,5465
3,29,between-subtype,9g,9a,senescence,cane,aquarium,fish,4,6931
3,30,within-subtype,5f,5f,golden,gleam,round,roll,6,5276
3,31,between-subtype,8b,8f,sadness,cry,food,nourishment,5,18758
3,32,within-subtype,8b,8b,pain,medicate,loneliness,socialize,4,5816
3,33,attention check,,,representations,,simultaneously,,1,6003
3,34,between-type,7b,8d,salesperson,customer,shoot,kill,3,6098
3,35,between-subtype,4e,4f,perplexed,certain,sterile,dirty,6,16547
3,36,within-subtype,5a,5a,water,wet,murderer,evil,3,21250
3,37,between-type,8f,5c,punch,pain,ice,cold,6,9736
3,38,between-subtype,5d,5e,angry,belligerence,baby,cry,3,8879
3,39,within-subtype,6c,6c,deceit,truth,depression,joy,6,10779
3,40,within-subtype,3c,3c,angry,enraged,breathe,hyperventilate,4,12469
3,41,within-subtype,9f,9f,infancy,teething,autumn,equinox,2,6342
3,42,between-subtype,7c,7g,surgeon,scalpel,carpet,vacuum,3,5124
3,43,between-type,2g,5g,meal,food,withdrawal,timid,6,20397
3,44,attention check,,,anthropologist,,anthropologist,,7,5526
3,45,between-subtype,4g,4h,fun,boring,leukemia,blood,2,5207
3,46,within-subtype,7d,7d,sweep,floor,clean,house,5,6093
3,47,within-subtype,9b,9b,theater,play,kitchen,food,7,9913
3,48,between-subtype,8c,8h,electricity,lamp,fungicide,fungus,1,14163
3,49,between-type,4f,10c,disastrous,peaceful,recording,sound,1,13165
3,50,within-subtype,7e,7e,preach,disciple,perform,audience,5,6746
3,51,between-subtype,2h,2a,bird,feathers,dog,tail,7,10618
3,52,between-subtype,3d,3b,exaggerate,lie,ennui,boredom,2,5998
3,53,between-subtype,7f,7e,check,employee,lecture,child,3,7269
3,54,within-subtype,9d,9d,kitchen,oven,laboratory,reagents,3,8995
4,1,between-subtype,2h,2e,bird,wings,baking,mixing,1,8384
4,2,between-type,7h,2h,driver,license,doctor,phd,6,7981
4,3,between-subtype,4h,4g,leukemia,blood,fun,boring,1,4857
4,4,between-subtype,5d,5f,happy,contentment,sturdy,strong,4,7455
4,5,within-subtype,8h,8h,fungicide,mold,acetaminophen,headache,6,5421
4,6,between-subtype,6g,6d,stare,intermittently,full,empty,6,6641
4,7,between-subtype,9d,9g,playground,slide,senescence,wheelchair,1,9137
4,8,between-subtype,7a,7g,florist,roses,criminal,handcuffs,5,8237
4,9,within-subtype,6h,6h,groom,unkempt,repair,damaged,7,8866
4,10,between-subtype,6d,6g,old,youth,stutter,steadily,7,6004
4,11,attention check,,,hummingbird,,hummingbird,,7,13152
4,12,between-subtype,8h,8c,fungicide,fungus,electricity,lamp,1,8546
4,13,within-subtype,6b,6b,irremediable,fixed,impermeable,penetrated,7,8050
4,14,between-subtype,5e,5d,baby,cry,angry,belligerence,2,4844
4,15,within-subtype,9f,9f,autumn,equinox,infancy,teething,5,5937
4,16,within-subtype,5f,5f,cowardly,surrender,golden,gleam,5,5276
4,17,within-subtype,7a,7a,spinner,yarn,blacksmith,iron,7,5387
4,18,within-subtype,4c,4c,fill,empty,peace,war,4,5886
4,19,between-subtype,6h,6c,repair,damaged,destitution,abundance,6,10304
4,20,between-subtype,2c,2h,quarter,pennies,words,letters,5,7954
4,21,between-type,8h,2h,locks,theft,mall,shops,2,6915
4,22,attention check,,,representations,,simultaneously,,1,4383
4,23,within-subtype,9b,9b,kitchen,food,theater,play,6,7006
4,24,between-subtype,8h,8a,moisturize,dryness,loss,grief,3,7515
4,25,within-subtype,7f,7f,ribbon,winner,receipt,customer,6,5685
4,26,between-subtype,2e,2c,wrapping,taping,book,chapter,4,6254
4,27,within-subtype,10f,10f,hat,hair,wrapper,package,6,4536
4,28,between-type,4d,5g,forward,backward,sprint,fast,1,4576
4,29,within-subtype,6e,6e,dead,breathe,confidant,betray,5,6752
4,30,within-subtype,8h,8h,sunscreen,burns,water,thirst,6,4877
4,31,between-type,4f,7d,rage,happiness,donate,charity,1,4515
4,32,between-subtype,3b,3f,disdain,hatred,shovel,spoon,3,6073
4,33,attention check,,,anthropologist,,anthropologist,,7,10374
4,34,between-subtype,8b,8c,disease,medicate,battery,phone,2,8689
4,35,within-subtype,10e,10e,dermatology,skin,geology,earth,6,6082
4,36,between-subtype,1e,1b,state,Virginia,shoe,sandal,6,5211
4,37,within-subtype,6e,6e,immortal,die,mountain,move,5,6070
4,38,between-subtype,5a,5d,bigot,hateful,provocative,controversy,1,8201
4,39,within-subtype,9f,9f,winter,snow,winter,cold,6,6210
4,40,between-subtype,9e,9f,ditch,road,birthday,celebration,2,7244
4,41,between-type,3d,4b,chat,gossip,bright,dark,1,4806
4,42,between-subtype,5g,5e,running,fast,water,flow,5,5503
4,43,within-subtype,7d,7d,eat,food,paint,picture,7,4802
4,44,attention check,,,coincidence,,knowledgeable,,1,5611
4,45,within-subtype,5a,5a,plain,flat,mogul,wealth,5,8201
4,46,within-subtype,9a,9a,farm,tractor,bakery,cake,5,5014
4,47,between-subtype,7a,7g,architect,building,blackboard,chalk,1,5681
4,48,within-subtype,2c,2c,quarter,pennies,poem,verses,5,6168
4,49,between-subtype,4f,4h,rage,happiness,fracture,bone,1,4519
4,50,within-subtype,6h,6h,discourage,confident,clean,messy,4,10029
4,51,between-subtype,2j,2g,widow,husband,wall,bricks,2,4718
4,52,within-subtype,2a,2a,shoe,sole,clock,hand,6,4401
4,53,between-type,7a,1e,sculptor,sculpture,planet,Earth,1,4231
4,54,within-subtype,8h,8h,moisturize,dryness,sunscreen,burns,6,6757
5,1,within-subtype,1d,1d,clothes,blouses,clothes,shirts,7,8407
5,2,within-subtype,2h,2h,mother,children,words,letters,4,7730
5,3,between-subtype,3d,3h,hurt,kill,acceleration,speed,6,5968
5,4,between-type,2f,7d,tree,root,brush,teeth,7,4664
5,5,within-subtype,5d,5d,pensive,thought,lazy,indolence,6,4942
5,6,within-subtype,7h,7h,charity,donations,marriage,license,7,4384
5,7,between-subtype,9e,9a,ditch,road,cupboard,dishes,5,4680
5,8,between-subtype,9g,9c,toddler,walking,bar,drinking,3,4573
5,9,within-subtype,3h,3h,waning,sunlight,terror,fear,1,4544
5,10,between-subtype,1e,1c,lake,Erie,fish,trout,4,4285
5,11,attention check,,,anthropologist,,anthropologist,,7,11806
5,12,within-subtype,7a,7a,poet,words,blacksmith,iron,1,17529
5,13,within-subtype,3a,3a,pants,trousers,boat,ship,7,5486
5,14,between-subtype,9h,9f,text,index,birthday,celebration,6,4955
5,15,between-subtype,9d,9e,church,pew,edge,cliff,5,4617
5,16,between-type,10a,7h,shriek,panic,adoptee,certificate,7,4393
5,17,within-subtype,10c,10c,signature,acknowledgment,recording,sound,4,4148
5,18,within-subtype,2a,2a,dog,tail,flashlight,bulb,4,4135
5,19,within-subtype,2b,2b,band,musician,school,fish,7,4306
5,20,within-subtype,5d,5d,pensive,thought,mad,anger,7,4544
5,21,between-subtype,1b,1e,clothing,sock,ocean,Indian,7,4203
5,22,attention check,,,hummingbird,,hummingbird,,7,5596
5,23,between-type,6b,4e,incomprehensible,understood,tedious,interesting,1,6686
5,24,within-subtype,5g,5g,sprint,fast,insult,unkind,7,4790
5,25,within-subtype,9g,9g,adult,job,adulthood,job,1,4893
5,26,between-type,6h,4e,clean,messy,old,young,1,4397
5,27,within-subtype,7f,7f,gift,recipient,award,winner,1,4624
5,28,within-subtype,9h,9h,narrative,epilogue,introduction,conclusion,4,5676
5,29,between-subtype,9c,9h,library,studying,title,story,1,4087
5,30,between-subtype,7a,7h,artist,paint,insured,policy,7,14367
5,31,between-subtype,5e,5c,tree,grow,idiot,stupidity,1,10025
5,32,within-subtype,7d,7d,row,boat,clean,house,1,6309
5,33,attention check,,,coincidence,,knowledgeable,,7,5843
5,34,within-subtype,4h,4h,pimple,skin,miscarriage,pregnancy,7,11268
5,35,between-subtype,8e,8d,athlete,medal,breathe,live,5,9557
5,36,between-subtype,9h,9a,meal,dessert,supermarket,groceries,7,7255
5,37,between-subtype,7g,7h,paper,pencil,doctor,phd,7,5584
5,38,between-subtype,9c,9d,bar,drinking,sew,needle,1,6720
5,39,within-subtype,4c,4c,abandon,embrace,attract,repel,4,7888
5,40,between-subtype,1e,1a,prince,Charles,appliance,refrigerator,6,11597
5,41,between-subtype,8d,8b,bathe,clean,dirty,bathe,7,9094
5,42,between-type,2g,5i,lawn,grass,divide,parts,1,7841
5,43,between-subtype,8a,8g,sweating,odor,shovel,dig,1,7212
5,44,attention check,,,representations,,simultaneously,,7,5246
5,45,within-subtype,6c,6c,dirt,cleanliness,sage,ignorance,1,5657
5,46,within-subtype,6h,6h,groom,unkempt,teach,ignorant,1,5366
5,47,between-subtype,5c,5d,scholar,intelligence,lethargic,fatigue,1,6666
5,48,between-subtype,8f,8g,fire,warmth,knife,cut,1,5900
5,49,between-subtype,2j,2e,husband,bachelorhood,cooking,chopping,1,7443
5,50,between-subtype,6b,6a,irreparable,fixed,rainbow,monochromatic,4,5241
5,51,within-subtype,9d,9d,laboratory,reagents,kitchen,oven,4,5422
5,52,between-subtype,2g,2j,cocktail,alcohol,butterfly,cocoon,1,5370
5,53,between-type,5c,8f,ice,cold,punch,pain,1,6130
5,54,within-subtype,7f,7f,education,student,medal,hero,4,5577
6,1,between-subtype,4f,4e,sterile,dirty,perplexed,certain,5,36192
6,2,within-subtype,5e,5e,tree,grow,boxer,fight,3,23667
6,3,between-subtype,5g,5d,insult,unkind,illogical,confusion,6,13870
6,4,between-subtype,1a,1c,dog,chihuahua,mammal,gorilla,3,12281
6,5,between-type,6a,7h,heat,cold,wife,ring,1,8925
6,6,within-subtype,7g,7g,paper,pencil,clothes,iron,5,14745
6,7,between-subtype,5c,5i,invalid,sickness,heat,warm,2,17682
6,8,within-subtype,9d,9d,office,telephone,office,computer,5,11276
6,9,within-subtype,8b,8b,tiredness,rest,loneliness,socialize,6,10162
6,10,between-subtype,10a,10b,license,permission,yawn,boredom,3,11276
6,11,attention check,,,representations,,simultaneously,,1,12593
6,12,between-subtype,2a,2d,house,room,restaurant,chef,3,17968
6,13,within-subtype,6g,6g,stare,intermittently,insult,kindly,1,11170
6,14,between-type,2b,3e,class,student,child,adult,2,13037
6,15,within-subtype,9e,9e,margin,paper,edge,cliff,6,6739
6,16,within-subtype,3g,3g,male,female,rooster,hen,5,8135
6,17,between-subtype,5g,5i,withdrawal,timid,eat,satisfaction,4,9920
6,18,within-subtype,4e,4e,old,young,thin,chubby,6,10183
6,19,between-subtype,6g,6h,hurry,lazily,discourage,confident,3,14184
6,20,within-subtype,9g,9g,morning,sunrise,elderly,retirement,4,13581
6,21,between-subtype,4d,4g,forward,backward,low,up,6,10008
6,22,attention check,,,anthropologist,,anthropologist,,7,14655
6,23,between-subtype,6a,6h,careful,reckless,destroy,alive,3,47162
6,24,within-subtype,6h,6h,cure,disease,teach,ignorant,6,13604
6,25,between-subtype,6g,6h,speed,slowly,wash,dirty,3,17494
6,26,between-subtype,5h,5f,drop,slippery,generous,give,6,9719
6,27,between-subtype,9h,9i,arrest,trial,foot,shoe,6,10256
6,28,between-subtype,6h,6a,fill,empty,object,intangible,2,10870
6,29,between-subtype,6b,6a,immovable,shaken,darkness,light,6,8715
6,30,between-subtype,5i,5a,sand,smooth,water,wet,2,9554
6,31,between-type,4g,6d,bright,dull,elderly,youth,6,7155
6,32,between-type,7h,6g,teacher,certificate,lie,honestly,2,7377
6,33,attention check,,,hummingbird,,hummingbird,,7,7895
6,34,within-subtype,7b,7b,accountant,taxpayer,parent,child,6,5760
6,35,within-subtype,3h,3h,rise,tide,flood,water,2,9777
6,36,within-subtype,3c,3c,nudging,shoving,wet,saturated,6,7848
6,37,between-type,4e,1a,perplexed,certain,rodent,mouse,2,9028
6,38,between-subtype,8c,8b,monitor,computer,dirty,bathe,3,8021
6,39,between-type,9h,3d,previews,movie,negotiate,blackmail,2,15599
6,40,within-subtype,1a,1a,bird,robin,bush,azalea,6,5099
6,41,within-subtype,8h,8h,immunization,disease,sun,darkness,6,14764
6,42,between-subtype,4f,4e,earsplitting,quiet,evil,good,6,7009
6,43,within-subtype,2f,2f,river,delta,ship,deck,6,6627
6,44,attention check,,,coincidence,,knowledgeable,,1,7554
6,45,between-subtype,6c,6a,anxiety,contentedness,object,intangible,2,9391
6,46,within-subtype,4d,4d,rise,sink,under,over,6,9195
6,47,within-subtype,5d,5d,pensive,thought,drunk,intoxication,6,7627
6,48,within-subtype,7e,7e,pay,debtor,preach,parishioner,6,11207
6,49,within-subtype,5f,5f,round,roll,golden,gleam,6,12193
6,50,between-subtype,9e,9g,guardrail,highway,senescence,cane,5,57727
6,51,between-subtype,7g,7c,carpet,vacuum,surgeon,scalpel,4,14763
6,52,within-subtype,5c,5c,ice,cold,psychotic,insanity,5,8157
6,53,within-subtype,7d,7d,write,paper,mend,clothing,6,14908
6,54,between-subtype,10f,10e,curtain,window,anthropology,people,5,12676
7,1,between-subtype,7f,7e,award,winner,pay,debtor,2,19001
7,2,between-subtype,5f,5h,hot,burn,heal,injured,3,8254
7,3,between-subtype,8g,8c,lotion,moisturize,bulb,flashlight,1,8960
7,4,within-subtype,9c,9c,church,prayer,laboratory,experimenting,4,8463
7,5,between-subtype,9i,9d,neck,necklace,war,weapon,5,8588
7,6,within-subtype,7h,7h,conductor,baton,queen,throne,5,7833
7,7,between-subtype,9a,9b,abbey,nun,restaurant,food,4,9246
7,8,within-subtype,2a,2a,dog,tail,fish,fin,6,5328
7,9,between-type,2a,6c,movie,scene,slavery,freedom,2,5833
7,10,between-subtype,3f,3b,tent,house,happiness,joy,5,5225
7,11,attention check,,,representations,,simultaneously,,1,19680
7,12,between-type,6f,8g,fearless,hide,calculator,add,1,11301
7,13,between-subtype,5c,5a,pacifist,peace,blanket,soft,5,8547
7,14,within-subtype,6b,6b,transparent,opaque,irreparable,fixed,6,6392
7,15,between-subtype,9h,9i,performance,applause,foot,sock,1,8815
7,16,between-subtype,10c,10f,seascape,ocean,bushes,trap,2,6124
7,17,between-subtype,4a,4h,cold,warm,infertility,reproduction,5,5771
7,18,within-subtype,6d,6d,christian,atheist,invincible,defeated,2,7230
7,19,between-type,9h,1a,narrative,epilogue,animal,pig,1,9302
7,20,between-subtype,9b,9h,mine,coal,ingestion,digestion,5,6242
7,21,within-subtype,5b,5b,wooden,burned,fragrant,smelled,5,9549
7,22,attention check,,,hummingbird,,hummingbird,,7,5081
7,23,between-subtype,5h,5i,comfort,hurting,fire,burnt,3,6699
7,24,within-subtype,2g,2g,sock,thread,team,players,6,5889
7,25,between-subtype,5h,5a,drop,slippery,sunburn,painful,6,5291
7,26,between-subtype,5d,5a,illogical,confusion,tycoon,wealthy,6,6692
7,27,within-subtype,3d,3d,persuade,coerce,borrow,take,7,6398
7,28,within-subtype,2d,2d,zoo,animal,carnival,rides,7,6005
7,29,between-subtype,5h,5i,wash,soiled,iron,pressed,5,6144
7,30,within-subtype,8b,8b,loneliness,socialize,pain,medicate,6,5385
7,31,between-subtype,8c,8d,chemical,firework,burnish,shine,5,4824
7,32,between-subtype,2i,2d,worm,feet,hospital,patient,2,7383
7,33,attention check,,,coincidence,,knowledgeable,,1,4664
7,34,within-subtype,4e,4e,windy,calm,free,imprisoned,5,7161
7,35,between-type,9c,8f,church,worship,automobile,transportation,4,7096
7,36,between-type,8a,2e,workout,sweat,showering,soaping,6,6906
7,37,between-subtype,2j,2c,criminal,lawfulness,book,chapter,1,6882
7,38,between-subtype,9a,9c,closet,clothing,kitchen,cooking,6,4886
7,39,within-subtype,6g,6g,perseverate,quickly,whisper,loudly,5,10341
7,40,within-subtype,5a,5a,murderer,evil,water,wet,6,5140
7,41,between-type,2e,9f,therapy,talking,spring,breeze,5,6241
7,42,within-subtype,9e,9e,bank,river,baseboard,wall,6,5636
7,43,within-subtype,6h,6h,polish,tarnished,dress,naked,6,8309
7,44,attention check,,,anthropologist,,anthropologist,,7,5173
7,45,within-subtype,4a,4a,hot,cold,young,old,7,10845
7,46,within-subtype,7f,7f,prescription,patient,ribbon,winner,5,5341
7,47,within-subtype,7f,7f,donation,charity,certificate,teacher,6,4882
7,48,between-subtype,7f,7c,receipt,customer,pitcher,baseball,2,6748
7,49,within-subtype,5a,5a,bigot,hateful,pillow,soft,5,6848
7,50,within-subtype,8h,8h,knowledge,ignorance,money,poverty,5,7145
7,51,within-subtype,10d,10d,strategy,victory,choreography,performance,6,5251
7,52,between-subtype,3g,3b,canoe,kayak,love,adore,5,4970
7,53,between-subtype,5c,5d,psychotic,insanity,emotional,turmoil,6,7154
7,54,within-subtype,1a,1a,vegetable,carrot,dog,chihuahua,7,4872
8,1,within-subtype,5g,5g,sprint,fast,insult,unkind,2,9943
8,2,between-subtype,1e,1a,prince,Charles,appliance,refrigerator,2,19957
8,3,within-subtype,2a,2a,dog,tail,flashlight,bulb,5,6184
8,4,between-type,2f,7d,tree,root,brush,teeth,6,16117
8,5,between-subtype,2g,2j,cocktail,alcohol,butterfly,cocoon,5,85141
8,6,between-subtype,9h,9f,text,index,birthday,celebration,6,11305
8,7,between-type,6b,4e,incomprehensible,understood,tedious,interesting,5,77226
8,8,within-subtype,9d,9d,laboratory,reagents,kitchen,oven,6,64030
8,9,between-subtype,9c,9d,bar,drinking,sew,needle,5,13234
8,10,within-subtype,2h,2h,mother,children,words,letters,5,34870
8,11,attention check,,,coincidence,,knowledgeable,,1,18759
8,12,between-subtype,9e,9a,ditch,road,cupboard,dishes,3,45562
8,13,between-subtype,8a,8g,sweating,odor,shovel,dig,5,9873
8,14,within-subtype,7a,7a,poet,words,blacksmith,iron,7,4413
8,15,within-subtype,7f,7f,gift,recipient,award,winner,6,10053
8,16,between-subtype,8f,8g,fire,warmth,knife,cut,5,10807
8,17,between-subtype,7a,7h,artist,paint,insured,policy,7,11238
8,18,between-subtype,1b,1e,clothing,sock,ocean,Indian,3,10985
8,19,within-subtype,4h,4h,pimple,skin,miscarriage,pregnancy,6,13208
8,20,within-subtype,3a,3a,pants,trousers,boat,ship,7,101109
8,21,between-subtype,8d,8b,bathe,clean,dirty,bathe,5,17281
8,22,attention check,,,anthropologist,,anthropologist,,7,7050
8,23,within-subtype,6c,6c,dirt,cleanliness,sage,ignorance,2,131925
8,24,within-subtype,7h,7h,charity,donations,marriage,license,7,5542
8,25,between-subtype,6b,6a,irreparable,fixed,rainbow,monochromatic,3,6579
8,26,between-type,6h,4e,clean,messy,old,young,7,7719
8,27,within-subtype,9g,9g,adult,job,adulthood,job,7,12461
8,28,between-type,2g,5i,lawn,grass,divide,parts,1,11029
8,29,between-subtype,5c,5d,scholar,intelligence,lethargic,fatigue,6,9829
8,30,between-subtype,7g,7h,paper,pencil,doctor,phd,3,17020
8,31,between-subtype,9g,9c,toddler,walking,bar,drinking,5,23152
8,32,within-subtype,7d,7d,row,boat,clean,house,3,5360
8,33,attention check,,,representations,,simultaneously,,1,10668
8,34,between-type,10a,7h,shriek,panic,adoptee,certificate,3,12018
8,35,between-type,5c,8f,ice,cold,punch,pain,6,5188
8,36,between-subtype,9c,9h,library,studying,title,story,5,6538
8,37,within-subtype,2b,2b,band,musician,school,fish,7,5164
8,38,within-subtype,3h,3h,waning,sunlight,terror,fear,3,11389
8,39,between-subtype,9h,9a,meal,dessert,supermarket,groceries,5,8329
8,40,within-subtype,5d,5d,pensive,thought,mad,anger,6,86855
8,41,between-subtype,9d,9e,church,pew,edge,cliff,6,26486
8,42,within-subtype,5d,5d,pensive,thought,lazy,indolence,5,5366
8,43,between-subtype,8e,8d,athlete,medal,breathe,live,6,41450
8,44,attention check,,,hummingbird,,hummingbird,,7,4163
8,45,between-subtype,5e,5c,tree,grow,idiot,stupidity,6,7620
8,46,within-subtype,10c,10c,signature,acknowledgment,recording,sound,6,98991
8,47,within-subtype,9h,9h,narrative,epilogue,introduction,conclusion,5,5729
8,48,between-subtype,1e,1c,lake,Erie,fish,trout,6,4335
8,49,within-subtype,7f,7f,education,student,medal,hero,7,5427
8,50,within-subtype,1d,1d,clothes,blouses,clothes,shirts,6,5194
8,51,within-subtype,6h,6h,groom,unkempt,teach,ignorant,3,6653
8,52,within-subtype,4c,4c,abandon,embrace,attract,repel,7,134797
8,53,between-subtype,3d,3h,hurt,kill,acceleration,speed,6,15498
8,54,between-subtype,2j,2e,husband,bachelorhood,cooking,chopping,7,6691
9,1,within-subtype,9a,9a,bakery,cake,farm,tractor,6,8840
9,2,between-subtype,6a,6d,ecstasy,sad,old,youth,7,7097
9,3,within-subtype,9d,9d,office,computer,office,telephone,7,58756
9,4,between-subtype,9g,9e,senescence,cane,guardrail,highway,4,7268
9,5,between-subtype,4h,4f,fracture,bone,rage,happiness,1,6190
9,6,within-subtype,9h,9h,previews,movie,narrative,epilogue,7,6518
9,7,within-subtype,10e,10e,geology,earth,dermatology,skin,7,46216
9,8,between-subtype,1e,1a,king,Arthur,weapon,spear,6,10549
9,9,between-type,5i,2g,divide,parts,lawn,grass,1,6758
9,10,within-subtype,3h,3h,flood,water,rise,tide,2,13792
9,11,attention check,,,coincidence,,knowledgeable,,1,14213
9,12,between-type,5a,7h,bigot,hateful,doctor,phd,5,6104
9,13,between-subtype,4g,4b,bright,dark,accept,reject,7,5086
9,14,between-type,2e,1d,bathing,shampooing,animals,cats,2,11309
9,15,within-subtype,6e,6e,mountain,move,immortal,die,1,40014
9,16,between-subtype,7c,7g,musician,instrument,wall,paint,5,19098
9,17,within-subtype,2g,2g,sweater,wool,house,bricks,7,6454
9,18,between-subtype,2e,2j,cooking,chopping,husband,bachelorhood,1,7761
9,19,between-type,2e,8a,showering,soaping,workout,sweat,7,7504
9,20,within-subtype,3a,3a,make,manufacture,run,sprint,6,54144
9,21,between-subtype,6c,6h,famine,food,repair,damaged,5,40957
9,22,attention check,,,hummingbird,,hummingbird,,7,8451
9,23,within-subtype,6c,6c,drought,water,slums,prosperity,7,13004
9,24,within-subtype,6f,6f,cruel,help,perplexing,understood,1,141097
9,25,between-subtype,1a,1e,appliance,refrigerator,prince,Charles,7,6079
9,26,between-subtype,7h,7a,insured,policy,artist,paint,4,10939
9,27,between-subtype,9g,9e,youth,backpack,margin,page,1,38593
9,28,between-subtype,3a,3c,cellphone,mobile,worried,frantic,6,8561
9,29,within-subtype,7e,7e,preach,parishioner,pay,debtor,5,13158
9,30,between-subtype,1b,1d,clothing,shirt,fish,salmon,7,8579
9,31,between-subtype,2a,2b,fish,fin,album,songs,5,11548
9,32,between-type,8c,3c,water,shower,angry,enraged,3,9426
9,33,attention check,,,representations,,simultaneously,,1,17574
9,34,within-subtype,3h,3h,flood,water,acceleration,speed,5,9512
9,35,between-subtype,9e,9d,edge,cliff,church,pew,4,7836
9,36,between-subtype,7c,7f,pitcher,baseball,receipt,customer,1,7553
9,37,between-subtype,10f,10c,bushes,trap,seascape,ocean,1,8519
9,38,between-subtype,5d,5a,provocative,controversy,bigot,hateful,7,4793
9,39,within-subtype,5d,5d,happy,contentment,angry,belligerence,4,6423
9,40,within-subtype,10a,10a,red,stop,crown,sovereignty,2,32783
9,41,within-subtype,1d,1d,jewelry,rings,animals,cows,7,15565
9,42,between-subtype,6g,6d,stutter,steadily,old,youth,7,8610
9,43,within-subtype,4a,4a,noise,silence,abrasive,smooth,7,7027
9,44,attention check,,,anthropologist,,anthropologist,,7,6280
9,45,between-subtype,5a,5b,water,wet,dusty,dusted,7,17428
9,46,between-subtype,9i,9h,foot,shoe,arrest,trial,3,5028
9,47,within-subtype,7f,7f,award,winner,gift,recipient,7,9590
9,48,within-subtype,8h,8h,water,thirst,sunscreen,burns,4,8948
9,49,between-type,4e,6b,tedious,interesting,incomprehensible,understood,7,5571
9,50,within-subtype,1a,1a,bush,azalea,bird,robin,7,4613
9,51,within-subtype,8h,8h,money,poverty,knowledge,ignorance,7,8948
9,52,within-subtype,9c,9c,laboratory,experimenting,church,prayer,6,6860
9,53,within-subtype,9a,9a,kitchen,food,classroom,students,7,4626
9,54,between-subtype,1b,1d,instrument,violin,utensils,forks,7,6817
10,1,within-subtype,9a,9a,classroom,students,kitchen,food,6,7633
10,2,between-type,6d,8b,old,young,coldness,shiver,3,6398
10,3,within-subtype,7g,7g,lock,key,piano,fingers,6,8964
10,4,within-subtype,3b,3b,affection,love,jog,run,5,15039
10,5,between-subtype,10b,10a,laugh,amusement,green,go,5,8952
10,6,within-subtype,10e,10e,anatomy,bodies,anatomy,body,5,8267
10,7,between-type,5g,2g,withdrawal,timid,meal,food,3,10112
10,8,between-subtype,6d,6h,whole,broken,clean,messy,6,8874
10,9,between-type,7h,2h,doctor,phd,scholar,books,4,5376
10,10,between-subtype,5h,5i,repair,broken,divide,parts,4,17537
10,11,attention check,,,representations,,simultaneously,,1,15798
10,12,within-subtype,10b,10b,yell,anger,wave,acknowledgment,6,6966
10,13,within-subtype,5e,5e,sun,shine,shovel,dig,6,7243
10,14,between-subtype,6g,6a,cooperate,defiantly,baby,mature,6,7941
10,15,between-subtype,1d,1b,fish,salmon,clothing,shirt,5,7108
10,16,between-subtype,9h,9c,conception,birth,store,shopping,6,4745
10,17,within-subtype,8h,8h,rest,exhaustion,moisturize,dryness,6,4509
10,18,between-subtype,2c,2d,body,cell,party,guests,6,4363
10,19,within-subtype,3b,3b,chuckle,guffaw,shriek,scream,4,4374
10,20,between-subtype,5b,5a,dusty,dusted,water,wet,5,19055
10,21,between-type,2b,6d,book,page,old,youth,2,9054
10,22,attention check,,,anthropologist,,anthropologist,,7,6879
10,23,between-subtype,2j,2e,student,ignorance,cooking,stirring,2,8465
10,24,within-subtype,3h,3h,decrescendo,sound,darken,color,4,7287
10,25,within-subtype,10a,10a,crown,sovereignty,red,stop,5,5005
10,26,within-subtype,2j,2j,retiree,job,widow,husband,6,6736
10,27,between-subtype,4b,4d,dirty,clean,ahead,behind,3,5275
10,28,between-subtype,1c,1e,beverage,water,state,Virginia,6,8863
10,29,between-subtype,4h,4g,scratch,cd,enthusiastic,lazy,2,9144
10,30,within-subtype,10d,10d,prescription,medication,plan,lesson,5,10472
10,31,between-subtype,3f,3h,ladder,stairs,goal,score,3,5882
10,32,between-type,7b,6h,salesperson,buyer,repair,damaged,4,7063
10,33,attention check,,,coincidence,,knowledgeable,,1,4426
10,34,between-subtype,9h,9g,introduction,speech,senescence,wheelchair,4,14451
10,35,between-subtype,6a,6b,fire,cold,immortal,die,6,5432
10,36,between-subtype,2h,2f,bird,feathers,supermarket,aisle,6,4542
10,37,between-subtype,7e,7f,give,receiver,donation,charity,6,4319
10,38,between-type,6c,9f,drought,water,summer,vacation,5,5420
10,39,within-subtype,2h,2h,employee,job,proprietor,employees,4,15074
10,40,within-subtype,9e,9e,shore,lake,bank,river,7,4509
10,41,between-subtype,2d,2i,funeral,corpse,desert,evergreen,1,5083
10,42,within-subtype,10a,10a,cross,faith,wrinkle,age,6,15895
10,43,between-subtype,9f,9b,winter,sledding,refinery,oil,4,4295
10,44,attention check,,,hummingbird,,hummingbird,,7,3865
10,45,between-subtype,4a,4e,normal,abnormal,lazy,productive,7,4516
10,46,between-subtype,8d,8a,sleep,rest,injury,pain,5,8649
10,47,within-subtype,4e,4e,mobile,inert,lazy,productive,4,6434
10,48,between-subtype,5b,5h,wooden,burned,consume,edible,6,10190
10,49,within-subtype,3g,3g,salt,pepper,almond,pecan,3,5679
10,50,within-subtype,6f,6f,perplexing,understood,cruel,help,5,8042
10,51,within-subtype,3a,3a,house,dwelling,raise,elevate,6,5072
10,52,within-subtype,3c,3c,angry,enraged,hot,burning,5,5668
10,53,within-subtype,2b,2b,paragraph,word,senate,senators,6,7130
10,54,within-subtype,9i,9i,axle,wheel,feet,shoes,6,4340
11,1,within-subtype,6h,6h,dress,naked,gild,plain,5,92475
11,2,between-type,6h,1c,sand,rough,container,jug,1,8610
11,3,between-type,5g,4d,sprint,fast,forward,backward,2,17609
11,4,within-subtype,1d,1d,beverages,sodas,fish,salmon,7,21372
11,5,between-subtype,2b,2d,pack,wolf,concert,musician,6,13397
11,6,between-subtype,7c,7e,doctor,stethoscope,treat,patient,3,19123
11,7,within-subtype,1b,1b,furniture,chair,seat,chair,5,25329
11,8,between-subtype,5i,5c,exercise,fatigue,child,youth,2,9748
11,9,between-subtype,2d,2i,hospital,patient,worm,feet,1,17053
11,10,between-subtype,9c,9f,store,shopping,bedtime,sleeping,5,9900
11,11,attention check,,,anthropologist,,anthropologist,,7,15732
11,12,within-subtype,4c,4c,abandon,embrace,agree,argue,6,26236
11,13,between-subtype,2d,2b,graduation,students,library,books,4,7657
11,14,within-subtype,1a,1a,dog,chihuahua,vegetable,carrot,7,9777
11,15,within-subtype,7d,7d,paint,picture,eat,food,7,8661
11,16,between-subtype,1c,1a,mammal,gorilla,dog,chihuahua,7,20929
11,17,within-subtype,7f,7f,ribbon,winner,prescription,patient,6,12171
11,18,within-subtype,9h,9h,preview,movie,performance,applause,5,10031
11,19,within-subtype,4a,4a,slow,fast,up,down,6,7947
11,20,between-subtype,9c,9h,store,shopping,conception,birth,5,15153
11,21,within-subtype,2g,2g,lawn,grass,bread,flour,5,8577
11,22,attention check,,,hummingbird,,hummingbird,,7,5718
11,23,between-subtype,3f,3b,shovel,spoon,disdain,hatred,4,21575
11,24,between-subtype,9b,9a,restaurant,food,abbey,nun,5,15671
11,25,between-subtype,8g,8f,knife,cut,fire,warmth,6,6646
11,26,between-type,2c,8d,book,chapters,advertise,promote,5,11490
11,27,between-subtype,10e,10f,anthropology,people,curtain,window,3,20601
11,28,between-subtype,6a,6c,object,intangible,anxiety,contentedness,6,9295
11,29,between-type,7f,8a,medal,hero,repetition,boredom,5,11012
11,30,between-type,8g,6f,calculator,add,fearless,hide,2,10498
11,31,within-subtype,6g,6g,insult,kindly,stare,intermittently,5,12861
11,32,within-subtype,4c,4c,attract,repel,abandon,embrace,7,5978
11,33,attention check,,,coincidence,,knowledgeable,,1,4275
11,34,between-subtype,9a,9i,zoo,animals,cloth,stitch,6,8335
11,35,between-subtype,7h,7g,doctor,phd,paper,pencil,6,4907
11,36,within-subtype,5e,5e,shovel,dig,sun,shine,5,10211
11,37,within-subtype,2h,2h,doctor,phd,expert,experience,5,11112
11,38,within-subtype,6f,6f,angry,smile,exhausted,run,4,11404
11,39,within-subtype,3a,3a,boat,ship,pants,trousers,7,6030
11,40,within-subtype,10b,10b,wave,acknowledgment,yell,anger,7,7757
11,41,within-subtype,9g,9g,elderly,retirement,morning,sunrise,6,8822
11,42,between-subtype,7g,7c,lock,key,barber,scissors,7,7168
11,43,between-type,7h,10a,adoptee,certificate,shriek,panic,6,6503
11,44,attention check,,,representations,,simultaneously,,1,4192
11,45,between-subtype,5a,5d,tycoon,wealthy,illogical,confusion,7,4564
11,46,between-subtype,5a,5c,blanket,soft,pacifist,peace,7,11050
11,47,between-subtype,8c,8a,water,shower,exercise,fitness,7,20512
11,48,between-subtype,9c,9a,library,reading,aquarium,fish,7,9376
11,49,within-subtype,6f,6f,inarticulate,express,lethargic,run,6,18851
11,50,within-subtype,3b,3b,shriek,scream,chuckle,guffaw,7,10059
11,51,between-subtype,8b,8c,dirty,bathe,monitor,computer,4,6956
11,52,between-subtype,7g,7a,blackboard,chalk,architect,building,6,5280
11,53,within-subtype,8h,8h,locks,theft,rest,exhaustion,6,10939
11,54,within-subtype,9i,9i,ear,earplug,shirt,button,5,4715
13,1,within-subtype,6e,6e,immortal,die,cat,bark,1,21840
13,2,within-subtype,3e,3e,associate,partner,puppy,dog,1,30842
13,3,within-subtype,8a,8a,accident,damage,injury,pain,2,13147
13,4,within-subtype,6e,6e,miser,splurge,miser,give,4,14554
13,5,between-subtype,5d,5c,emotional,turmoil,psychotic,insanity,1,24135
13,6,between-subtype,2a,2b,bird,wings,pack,wolf,1,16862
13,7,within-subtype,4g,4g,obey,protest,enthusiastic,lazy,1,9509
13,8,within-subtype,3h,3h,terror,fear,waning,sunlight,1,7321
13,9,within-subtype,9e,9e,bank,river,shore,lake,7,18810
13,10,between-type,6e,4g,glutton,fast,obey,protest,1,7006
13,11,attention check,,,anthropologist,,anthropologist,,7,20243
13,12,within-subtype,6b,6b,irreparable,fixed,transparent,opaque,7,57319
13,13,within-subtype,9h,9h,introduction,speech,step,journey,7,12345
13,14,between-subtype,6h,6g,discourage,confident,hurry,lazily,7,11059
13,15,between-subtype,9d,9a,sew,needle,store,products,5,29288
13,16,between-subtype,2c,2e,book,chapter,wrapping,taping,1,14659
13,17,between-subtype,2f,2d,church,sanctuary,party,guests,1,7548
13,18,between-subtype,4g,4h,enthusiastic,lazy,scratch,cd,1,10109
13,19,between-type,7c,9h,shooter,gun,step,journey,1,14509
13,20,between-subtype,4h,4d,tumor,body,under,over,1,6836
13,21,between-subtype,8b,8d,dirty,bathe,bathe,clean,7,38144
13,22,attention check,,,coincidence,,knowledgeable,,1,12849
13,23,between-subtype,10a,10d,crossbones,poison,outline,paper,1,17085
13,24,between-type,1c,6c,beverage,water,deceit,truth,1,15107
13,25,between-type,10c,4f,crown,king,freezing,warm,1,14283
13,26,within-subtype,2i,2i,woman,penis,deaf,hearing,7,19865
13,27,within-subtype,4e,4e,free,imprisoned,windy,calm,7,8274
13,28,within-subtype,1e,1e,city,Memphis,planet,Earth,7,24967
13,29,within-subtype,5b,5b,fragrant,smelled,wooden,burned,7,31411
13,30,within-subtype,5d,5d,mad,anger,pensive,thought,7,9459
13,31,between-subtype,5i,5c,stab,wound,pacifist,peace,1,33214
13,32,between-subtype,9h,9b,ingestion,digestion,mine,coal,1,12821
13,33,attention check,,,hummingbird,,hummingbird,,7,12495
13,34,between-type,8f,9c,automobile,transportation,church,worship,7,22617
13,35,within-subtype,6h,6h,teach,ignorant,groom,unkempt,7,16233
13,36,between-subtype,6a,6g,baby,mature,cooperate,defiantly,7,21648
13,37,between-subtype,6b,6e,inexorable,halted,immortal,die,1,19606
13,38,between-subtype,5e,5f,rabbit,hop,intransigent,resist,1,8825
13,39,within-subtype,8c,8c,battery,phone,wood,fireplace,7,14002
13,40,within-subtype,5d,5d,drunk,intoxication,pensive,thought,1,17544
13,41,within-subtype,1d,1d,utensils,forks,bedding,sheets,7,8916
13,42,within-subtype,6b,6b,impermeable,penetrated,irremediable,fixed,7,13867
13,43,between-subtype,2g,2a,house,bricks,bicycle,wheel,7,11927
13,44,attention check,,,representations,,simultaneously,,1,8805
13,45,between-subtype,6f,6a,awake,sleep,ecstasy,sad,7,24130
13,46,between-subtype,5a,5b,fire,heat,volatile,combustible,7,13001
13,47,within-subtype,4e,4e,lazy,productive,mobile,inert,7,10820
13,48,between-subtype,9d,9b,kitchen,pot,dairy,milk,7,14290
13,49,between-subtype,9g,9e,adulthood,job,margin,paper,7,17109
13,50,between-subtype,4a,4g,rich,poor,hard,simple,7,15131
13,51,within-subtype,8c,8c,remote,tv,mouse,computer,7,6305
13,52,between-subtype,5c,5e,idiot,stupidity,tree,grow,1,12822
13,53,within-subtype,9d,9d,garage,car,office,computer,7,9464
13,54,between-type,9f,3h,birthday,celebration,speed,movement,1,11935
14,1,between-subtype,9g,9h,senescence,wheelchair,introduction,speech,4,18951
14,2,within-subtype,4c,4c,peace,war,fill,empty,2,8181
14,3,within-subtype,5d,5d,lazy,indolence,pensive,thought,6,15758
14,4,within-subtype,3b,3b,happiness,joy,chuckle,guffaw,4,12104
14,5,between-subtype,5h,5f,heal,injured,hot,burn,3,17391
14,6,within-subtype,5e,5e,fire,burn,baby,cry,3,7339
14,7,within-subtype,2j,2j,adult,childhood,miscarriage,fetus,7,9756
14,8,between-subtype,3e,3h,baby,adult,flood,water,2,6292
14,9,between-type,10e,9g,criminology,crimes,adolescence,acne,6,11857
14,10,between-type,4c,9i,injure,heal,vine,grape,5,9549
14,11,attention check,,,hummingbird,,hummingbird,,7,8002
14,12,between-subtype,2f,2i,automobile,trunk,jesus,sins,2,9528
14,13,between-subtype,5i,5h,iron,pressed,wash,soiled,4,14541
14,14,between-type,2h,7h,doctor,phd,driver,license,1,9153
14,15,within-subtype,9f,9f,winter,cold,winter,snow,5,9112
14,16,between-type,10a,2i,shriek,panic,infinite,end,1,8618
14,17,between-subtype,9d,9c,sew,needle,bar,drinking,5,30651
14,18,between-subtype,9i,9h,foot,sock,performance,applause,1,6107
14,19,between-subtype,4h,4a,infertility,reproduction,cold,warm,7,25995
14,20,between-subtype,5h,5b,consume,edible,wooden,burned,2,14161
14,21,between-subtype,4b,4h,bright,dark,fracture,bone,2,11978
14,22,attention check,,,coincidence,,knowledgeable,,1,34019
14,23,within-subtype,7d,7d,teach,student,donate,charity,7,144765
14,24,within-subtype,2f,2f,tree,branch,house,roof,4,14612
14,25,between-subtype,9i,9d,shirt,button,garage,wrench,5,9188
14,26,between-subtype,7f,7e,donation,charity,give,receiver,7,10908
14,27,within-subtype,1e,1e,king,Arthur,prince,Charles,2,9791
14,28,within-subtype,2e,2e,cooking,peeling,knitting,purling,5,8250
14,29,within-subtype,6h,6h,repair,damaged,groom,unkempt,3,8874
14,30,within-subtype,2d,2d,game,referee,zoo,lion,7,9507
14,31,within-subtype,4a,4a,young,old,hot,cold,1,10185
14,32,within-subtype,4h,4h,miscarriage,pregnancy,pimple,skin,2,11523
14,33,attention check,,,anthropologist,,anthropologist,,7,10595
14,34,between-subtype,3c,3f,breathing,hyperventilating,pillow,cushion,1,13267
14,35,between-subtype,1e,1c,state,Virginia,beverage,water,3,13927
14,36,within-subtype,4h,4h,pimple,skin,gap,teeth,6,12587
14,37,within-subtype,6e,6e,confidant,betray,dead,breathe,2,7858
14,38,between-subtype,7b,7c,vet,animal,surgeon,scalpel,7,10114
14,39,between-type,4a,5a,large,small,tycoon,wealthy,1,6571
14,40,between-subtype,5e,5g,water,flow,running,fast,7,16330
14,41,between-subtype,4a,4d,young,old,forward,backward,3,10459
14,42,between-type,9f,2e,spring,breeze,therapy,talking,5,14139
14,43,within-subtype,7f,7f,certificate,teacher,donation,charity,3,9035
14,44,attention check,,,representations,,simultaneously,,1,7070
14,45,between-subtype,5g,5b,laugh,happy,elastic,stretched,3,12302
14,46,within-subtype,7d,7d,mend,clothing,write,paper,4,7258
14,47,between-subtype,8g,8a,shovel,dig,sweating,odor,4,14594
14,48,between-subtype,1c,1e,fish,trout,lake,Erie,3,6970
14,49,within-subtype,3d,3d,borrow,take,persuade,coerce,7,10570
14,50,between-subtype,8c,8g,bulb,flashlight,lotion,moisturize,2,9696
14,51,between-subtype,2g,2j,wall,bricks,widow,husband,3,15154
14,52,within-subtype,7f,7f,receipt,customer,ribbon,winner,2,7743
14,53,within-subtype,8d,8d,advertise,promote,breathe,live,6,19499
14,54,within-subtype,3c,3c,homely,grotesque,confident,arrogance,4,8656
15,1,between-type,7a,1e,sculptor,sculpture,planet,Earth,4,8557
15,2,between-subtype,4f,4h,rage,happiness,fracture,bone,1,5513
15,3,within-subtype,8h,8h,sunscreen,burns,water,thirst,5,5463
15,4,between-subtype,8h,8a,moisturize,dryness,loss,grief,3,5543
15,5,between-subtype,6h,6c,repair,damaged,destitution,abundance,7,6571
15,6,between-subtype,6g,6d,stare,intermittently,full,empty,4,4693
15,7,between-subtype,4h,4g,leukemia,blood,fun,boring,3,4720
15,8,between-subtype,9d,9g,playground,slide,senescence,wheelchair,3,4791
15,9,between-subtype,1e,1b,state,Virginia,shoe,sandal,7,5634
15,10,within-subtype,8h,8h,moisturize,dryness,sunscreen,burns,6,4896
15,11,attention check,,,anthropologist,,anthropologist,,4,4427
15,12,within-subtype,7a,7a,spinner,yarn,blacksmith,iron,6,5623
15,13,between-subtype,2h,2e,bird,wings,baking,mixing,5,6068
15,14,between-subtype,7a,7g,florist,roses,criminal,handcuffs,6,4394
15,15,within-subtype,5a,5a,plain,flat,mogul,wealth,4,15444
15,16,within-subtype,6e,6e,dead,breathe,confidant,betray,2,4746
15,17,between-subtype,8h,8c,fungicide,fungus,electricity,lamp,5,6695
15,18,within-subtype,9f,9f,autumn,equinox,infancy,teething,4,4087
15,19,between-subtype,5a,5d,bigot,hateful,provocative,controversy,3,5047
15,20,within-subtype,10e,10e,dermatology,skin,geology,earth,7,4254
15,21,within-subtype,9b,9b,kitchen,food,theater,play,5,5812
15,22,attention check,,,representations,,simultaneously,,4,4014
15,23,between-subtype,7a,7g,architect,building,blackboard,chalk,4,4349
15,24,between-type,8h,2h,locks,theft,mall,shops,3,5504
15,25,within-subtype,5f,5f,cowardly,surrender,golden,gleam,4,3699
15,26,between-subtype,3b,3f,disdain,hatred,shovel,spoon,4,3777
15,27,between-subtype,8b,8c,disease,medicate,battery,phone,3,4917
15,28,within-subtype,6h,6h,groom,unkempt,repair,damaged,5,4277
15,29,within-subtype,6h,6h,discourage,confident,clean,messy,6,4170
15,30,between-subtype,5e,5d,baby,cry,angry,belligerence,5,4925
15,31,within-subtype,4c,4c,fill,empty,peace,war,4,4102
15,32,between-type,4d,5g,forward,backward,sprint,fast,4,3406
15,33,attention check,,,coincidence,,knowledgeable,,4,4787
15,34,between-type,7h,2h,driver,license,doctor,phd,4,4146
15,35,within-subtype,6e,6e,immortal,die,mountain,move,2,4818
15,36,within-subtype,7d,7d,eat,food,paint,picture,5,5390
15,37,between-subtype,5d,5f,happy,contentment,sturdy,strong,2,4426
15,38,within-subtype,10f,10f,hat,hair,wrapper,package,3,5220
15,39,within-subtype,9f,9f,winter,snow,winter,cold,4,4043
15,40,within-subtype,2a,2a,shoe,sole,clock,hand,4,4231
15,41,between-subtype,6d,6g,old,youth,stutter,steadily,2,6556
15,42,between-subtype,2c,2h,quarter,pennies,words,letters,7,5414
15,43,within-subtype,8h,8h,fungicide,mold,acetaminophen,headache,7,4773
15,44,attention check,,,hummingbird,,hummingbird,,7,4975
15,45,between-type,3d,4b,chat,gossip,bright,dark,3,5964
15,46,within-subtype,2c,2c,quarter,pennies,poem,verses,7,4799
15,47,between-subtype,5g,5e,running,fast,water,flow,4,4269
15,48,between-type,4f,7d,rage,happiness,donate,charity,2,4575
15,49,within-subtype,9a,9a,farm,tractor,bakery,cake,4,4955
15,50,between-subtype,2e,2c,wrapping,taping,book,chapter,3,5474
15,51,within-subtype,6b,6b,irremediable,fixed,impermeable,penetrated,4,4510
15,52,within-subtype,7f,7f,ribbon,winner,receipt,customer,6,4903
15,53,between-subtype,2j,2g,widow,husband,wall,bricks,2,4098
15,54,between-subtype,9e,9f,ditch,road,birthday,celebration,5,4213
16,1,within-subtype,10d,10d,choreography,performance,map,journey,6,8475
16,2,between-subtype,5d,5c,lethargic,fatigue,scholar,intelligence,3,7371
16,3,between-subtype,8a,8d,injury,pain,sleep,rest,5,13266
16,4,within-subtype,3h,3h,darken,color,decrescendo,sound,5,9339
16,5,between-type,8d,4f,speak,communicate,catastrophic,beneficial,1,9371
16,6,between-type,1a,4e,rodent,mouse,perplexed,certain,1,8284
16,7,between-type,3c,4e,wet,saturated,tall,short,1,5845
16,8,within-subtype,10f,10f,curtain,window,bushes,trap,4,10580
16,9,between-type,6h,7b,repair,damaged,salesperson,buyer,3,10571
16,10,between-subtype,9f,9h,birthday,celebration,text,index,2,8884
16,11,attention check,,,representations,,simultaneously,,1,9032
16,12,within-subtype,5f,5f,golden,gleam,cowardly,surrender,5,14328
16,13,within-subtype,1b,1b,preservative,salt,dish,plate,5,12925
16,14,within-subtype,1e,1e,lake,Michigan,state,Virginia,7,5898
16,15,between-subtype,5d,5g,illogical,confusion,insult,unkind,2,13363
16,16,within-subtype,9g,9g,adulthood,job,adult,job,3,10298
16,17,within-subtype,8d,8d,wash,clean,buy,own,6,7155
16,18,between-subtype,5g,5f,hit,aggressive,dense,sink,1,7715
16,19,between-subtype,2i,2d,desert,evergreen,funeral,corpse,1,6895
16,20,within-subtype,5c,5c,winner,victory,pacifist,peace,4,7837
16,21,within-subtype,4e,4e,precise,clumsy,tall,short,5,6177
16,22,attention check,,,coincidence,,knowledgeable,,1,5939
16,23,within-subtype,7a,7a,florist,flowers,butcher,meat,6,4994
16,24,between-subtype,5a,5h,paper,flimsy,help,helpless,1,6221
16,25,between-subtype,5f,5d,sturdy,strong,happy,contentment,5,8989
16,26,between-subtype,9d,9i,war,weapon,neck,necklace,4,7683
16,27,within-subtype,2g,2g,wine,alcohol,atmosphere,gas,4,9547
16,28,between-type,9f,6c,summer,vacation,drought,water,1,6828
16,29,between-subtype,2c,2j,book,chapter,criminal,lawfulness,1,24003
16,30,between-subtype,2j,2g,butterfly,cocoon,cocktail,alcohol,4,15668
16,31,within-subtype,10b,10b,kiss,love,tears,sadness,5,6874
16,32,within-subtype,9i,9i,feet,shoes,axle,wheel,5,7089
16,33,attention check,,,hummingbird,,hummingbird,,7,5330
16,34,within-subtype,6d,6d,invincible,defeated,christian,atheist,6,5025
16,35,between-subtype,3h,3f,goal,score,ladder,stairs,3,11484
16,36,between-subtype,3b,3g,love,adore,canoe,kayak,5,7621
16,37,between-subtype,5d,5f,provocative,controversy,hot,burn,6,7348
16,38,within-subtype,5a,5a,sunburn,painful,fire,heat,3,8036
16,39,within-subtype,9e,9e,baseboard,wall,bank,river,5,6580
16,40,within-subtype,5g,5g,withdrawal,timid,kissing,loving,4,8683
16,41,between-subtype,3b,3c,silt,sediment,angry,enraged,5,7972
16,42,between-subtype,2i,2b,desert,water,band,musician,1,5308
16,43,within-subtype,10f,10f,wrapper,package,hat,hair,5,8700
16,44,attention check,,,anthropologist,,anthropologist,,7,5907
16,45,between-subtype,3h,3e,heat,temperature,child,adult,2,6698
16,46,between-subtype,6h,6d,clean,messy,whole,broken,7,5924
16,47,within-subtype,2a,2a,flashlight,bulb,dog,tail,4,7436
16,48,between-subtype,6a,6d,careful,reckless,plump,thinness,5,6052
16,49,between-type,6d,4g,elderly,youth,bright,dull,6,5573
16,50,within-subtype,3g,3g,rooster,hen,male,female,7,6034
16,51,between-subtype,4g,4d,low,up,forward,backward,6,5880
16,52,between-subtype,8f,8d,glue,adhesion,shoot,kill,5,5956
16,53,between-subtype,2f,2h,supermarket,aisle,bird,feathers,5,6868
16,54,within-subtype,7b,7b,parent,child,accountant,taxpayer,5,7628
17,1,within-subtype,1d,1d,beverages,sodas,fish,salmon,5,18461
17,2,between-subtype,10e,10f,anthropology,people,curtain,window,2,10454
17,3,between-type,7f,8a,medal,hero,repetition,boredom,1,8021
17,4,within-subtype,4a,4a,slow,fast,up,down,7,5659
17,5,between-subtype,3f,3b,shovel,spoon,disdain,hatred,5,8516
17,6,within-subtype,10b,10b,wave,acknowledgment,yell,anger,4,10931
17,7,within-subtype,2h,2h,doctor,phd,expert,experience,3,7541
17,8,within-subtype,6f,6f,angry,smile,exhausted,run,2,9173
17,9,within-subtype,5e,5e,shovel,dig,sun,shine,4,14162
17,10,between-subtype,2d,2b,graduation,students,library,books,3,14323
17,11,attention check,,,representations,,simultaneously,,1,12573
17,12,between-subtype,9c,9h,store,shopping,conception,birth,1,9360
17,13,between-subtype,8b,8c,dirty,bathe,monitor,computer,2,9353
17,14,between-type,8g,6f,calculator,add,fearless,hide,2,6695
17,15,within-subtype,7f,7f,ribbon,winner,prescription,patient,6,6912
17,16,between-type,2c,8d,book,chapters,advertise,promote,3,7587
17,17,between-subtype,5a,5d,tycoon,wealthy,illogical,confusion,5,6368
17,18,within-subtype,7d,7d,paint,picture,eat,food,4,7523
17,19,between-subtype,9a,9i,zoo,animals,cloth,stitch,3,6240
17,20,between-subtype,7c,7e,doctor,stethoscope,treat,patient,3,5953
17,21,between-subtype,8g,8f,knife,cut,fire,warmth,7,5037
17,22,attention check,,,anthropologist,,anthropologist,,7,9979
17,23,within-subtype,9i,9i,ear,earplug,shirt,button,7,5073
17,24,between-subtype,5i,5c,exercise,fatigue,child,youth,3,6821
17,25,within-subtype,6f,6f,inarticulate,express,lethargic,run,1,6400
17,26,between-subtype,2b,2d,pack,wolf,concert,musician,6,5987
17,27,within-subtype,3a,3a,boat,ship,pants,trousers,7,6178
17,28,within-subtype,6h,6h,dress,naked,gild,plain,5,6288
17,29,within-subtype,6g,6g,insult,kindly,stare,intermittently,5,6749
17,30,between-subtype,7h,7g,doctor,phd,paper,pencil,2,6184
17,31,between-subtype,8c,8a,water,shower,exercise,fitness,6,8600
17,32,between-subtype,9c,9f,store,shopping,bedtime,sleeping,6,5652
17,33,attention check,,,coincidence,,knowledgeable,,1,6811
17,34,between-subtype,5a,5c,blanket,soft,pacifist,peace,4,6844
17,35,within-subtype,1a,1a,dog,chihuahua,vegetable,carrot,6,5714
17,36,within-subtype,3b,3b,shriek,scream,chuckle,guffaw,6,14545
17,37,between-type,6h,1c,sand,rough,container,jug,2,5866
17,38,within-subtype,2g,2g,lawn,grass,bread,flour,4,7016
17,39,within-subtype,9h,9h,preview,movie,performance,applause,3,7638
17,40,between-type,5g,4d,sprint,fast,forward,backward,1,5762
17,41,within-subtype,9g,9g,elderly,retirement,morning,sunrise,6,6188
17,42,within-subtype,1b,1b,furniture,chair,seat,chair,4,7555
17,43,within-subtype,4c,4c,abandon,embrace,agree,argue,7,7369
17,44,attention check,,,hummingbird,,hummingbird,,7,5046
17,45,between-subtype,9c,9a,library,reading,aquarium,fish,3,8996
17,46,between-subtype,2d,2i,hospital,patient,worm,feet,1,5590
17,47,between-subtype,9b,9a,restaurant,food,abbey,nun,7,6338
17,48,between-subtype,1c,1a,mammal,gorilla,dog,chihuahua,5,6632
17,49,between-subtype,7g,7c,lock,key,barber,scissors,2,5731
17,50,within-subtype,8h,8h,locks,theft,rest,exhaustion,2,8660
17,51,between-subtype,7g,7a,blackboard,chalk,architect,building,4,5860
17,52,between-type,7h,10a,adoptee,certificate,shriek,panic,1,6734
17,53,within-subtype,4c,4c,attract,repel,abandon,embrace,6,5940
17,54,between-subtype,6a,6c,object,intangible,anxiety,contentedness,2,8628
18,1,between-subtype,2i,2b,desert,water,band,musician,1,7444
18,2,within-subtype,5a,5a,sunburn,painful,fire,heat,2,11198
18,3,within-subtype,10b,10b,kiss,love,tears,sadness,5,14494
18,4,within-subtype,9i,9i,feet,shoes,axle,wheel,5,7414
18,5,within-subtype,10d,10d,choreography,performance,map,journey,6,9351
18,6,within-subtype,10f,10f,curtain,window,bushes,trap,4,32679
18,7,within-subtype,5c,5c,winner,victory,pacifist,peace,4,8439
18,8,between-subtype,5g,5f,hit,aggressive,dense,sink,2,8102
18,9,within-subtype,1e,1e,lake,Michigan,state,Virginia,7,9855
18,10,between-subtype,2f,2h,supermarket,aisle,bird,feathers,7,10407
18,11,attention check,,,hummingbird,,hummingbird,,7,6521
18,12,within-subtype,2a,2a,flashlight,bulb,dog,tail,4,11227
18,13,between-type,1a,4e,rodent,mouse,perplexed,certain,2,4863
18,14,between-subtype,5a,5h,paper,flimsy,help,helpless,1,10519
18,15,between-subtype,6h,6d,clean,messy,whole,broken,7,8927
18,16,between-type,9f,6c,summer,vacation,drought,water,2,7335
18,17,between-subtype,8f,8d,glue,adhesion,shoot,kill,5,12319
18,18,between-subtype,8a,8d,injury,pain,sleep,rest,5,8599
18,19,between-subtype,2c,2j,book,chapter,criminal,lawfulness,1,6775
18,20,within-subtype,5f,5f,golden,gleam,cowardly,surrender,2,12279
18,21,between-type,6h,7b,repair,damaged,salesperson,buyer,2,13175
18,22,attention check,,,anthropologist,,anthropologist,,7,4445
18,23,between-subtype,3h,3e,heat,temperature,child,adult,1,10420
18,24,between-subtype,5d,5c,lethargic,fatigue,scholar,intelligence,3,59847
18,25,within-subtype,2g,2g,wine,alcohol,atmosphere,gas,6,5997
18,26,between-type,8d,4f,speak,communicate,catastrophic,beneficial,1,10967
18,27,between-subtype,9d,9i,war,weapon,neck,necklace,6,7327
18,28,between-subtype,3h,3f,goal,score,ladder,stairs,1,11167
18,29,between-subtype,3b,3g,love,adore,canoe,kayak,6,21935
18,30,between-subtype,3b,3c,silt,sediment,angry,enraged,4,7463
18,31,between-subtype,6a,6d,careful,reckless,plump,thinness,6,5287
18,32,between-subtype,9f,9h,birthday,celebration,text,index,2,9894
18,33,attention check,,,coincidence,,knowledgeable,,1,4707
18,34,between-subtype,2j,2g,butterfly,cocoon,cocktail,alcohol,1,12106
18,35,within-subtype,10f,10f,wrapper,package,hat,hair,6,9551
18,36,within-subtype,4e,4e,precise,clumsy,tall,short,6,5999
18,37,within-subtype,3h,3h,darken,color,decrescendo,sound,7,8975
18,38,between-subtype,5d,5g,illogical,confusion,insult,unkind,6,12839
18,39,within-subtype,9g,9g,adulthood,job,adult,job,7,11231
18,40,within-subtype,1b,1b,preservative,salt,dish,plate,7,6647
18,41,between-subtype,5d,5f,provocative,controversy,hot,burn,5,6127
18,42,within-subtype,3g,3g,rooster,hen,male,female,7,4662
18,43,within-subtype,5g,5g,withdrawal,timid,kissing,loving,7,8647
18,44,attention check,,,representations,,simultaneously,,1,4114
18,45,between-subtype,5f,5d,sturdy,strong,happy,contentment,6,49516
18,46,within-subtype,8d,8d,wash,clean,buy,own,7,9390
18,47,within-subtype,7a,7a,florist,flowers,butcher,meat,7,4919
18,48,between-type,3c,4e,wet,saturated,tall,short,1,5535
18,49,between-subtype,4g,4d,low,up,forward,backward,5,4854
18,50,within-subtype,6d,6d,invincible,defeated,christian,atheist,1,6456
18,51,within-subtype,7b,7b,parent,child,accountant,taxpayer,1,12054
18,52,between-subtype,2i,2d,desert,evergreen,funeral,corpse,1,15430
18,53,within-subtype,9e,9e,baseboard,wall,bank,river,6,7120
18,54,between-type,6d,4g,elderly,youth,bright,dull,2,25408
19,1,between-subtype,9e,9i,equator,hemispheres,axle,wheel,5,8874
19,2,between-type,7d,5d,paint,canvas,curious,investigation,3,6856
19,3,between-subtype,7d,7c,clean,floor,chemist,beaker,4,4601
19,4,within-subtype,3c,3c,confident,arrogance,homely,grotesque,5,7366
19,5,between-subtype,7e,7c,treat,patient,doctor,stethoscope,3,6421
19,6,between-subtype,2b,2d,library,books,graduation,students,5,5278
19,7,between-subtype,3e,3h,child,adult,heat,temperature,5,5526
19,8,between-subtype,8d,8f,shoot,kill,glue,adhesion,3,4991
19,9,between-subtype,3e,3c,baby,adult,fear,panic,4,6907
19,10,within-subtype,3b,3b,chuckle,guffaw,happiness,joy,4,3622
19,11,attention check,,,anthropologist,,anthropologist,,7,13936
19,12,between-subtype,5e,5h,water,flow,fix,broken,4,5198
19,13,between-subtype,9i,9d,hands,gloves,war,weapon,5,5704
19,14,between-subtype,6d,6a,plump,thinness,careful,reckless,4,7498
19,15,between-subtype,2j,2f,graduate,homework,automobile,trunk,3,6465
19,16,between-subtype,7c,7b,surgeon,scalpel,vet,animal,4,3851
19,17,within-subtype,1b,1b,seat,chair,furniture,chair,5,5265
19,18,between-type,3h,9f,speed,movement,birthday,celebration,5,4831
19,19,between-subtype,5h,5i,repair,broken,poison,die,4,4197
19,20,within-subtype,1b,1b,dish,plate,preservative,salt,3,5366
19,21,within-subtype,8c,8c,mouse,computer,battery,flashlight,6,4852
19,22,attention check,,,representations,,simultaneously,,1,8139
19,23,between-type,9i,4c,vine,grape,injure,heal,4,6841
19,24,within-subtype,1e,1e,prince,Charles,king,Arthur,4,4895
19,25,within-subtype,6f,6f,lethargic,run,inarticulate,express,5,4260
19,26,between-type,2i,10a,infinite,end,shriek,panic,3,4013
19,27,within-subtype,9h,9h,conception,birth,question,answer,4,3913
19,28,between-subtype,2b,2a,album,songs,fish,fin,5,4875
19,29,within-subtype,7g,7g,wall,paint,hair,brush,6,4139
19,30,between-subtype,5f,5g,dense,sink,hit,aggressive,4,3848
19,31,within-subtype,4a,4a,up,down,slow,fast,6,4324
19,32,between-subtype,7c,7a,writer,pen,florist,flowers,6,4646
19,33,attention check,,,hummingbird,,hummingbird,,7,5386
19,34,between-subtype,9f,9c,bedtime,sleeping,store,shopping,4,4070
19,35,between-subtype,9g,9e,puberty,hormones,floor,wall,4,5725
19,36,between-subtype,9d,9i,garage,wrench,shirt,button,5,4233
19,37,between-subtype,2b,2i,band,musician,desert,water,4,3613
19,38,within-subtype,8d,8d,breathe,live,advertise,promote,5,3587
19,39,within-subtype,6d,6d,christian,atheist,childish,mature,6,4193
19,40,within-subtype,2i,2i,deaf,hearing,woman,penis,3,6911
19,41,within-subtype,1c,1c,container,jug,meat,beef,5,7109
19,42,between-type,3c,8c,angry,enraged,water,shower,5,4580
19,43,between-subtype,9a,9g,aquarium,fish,senescence,cane,4,3811
19,44,attention check,,,coincidence,,knowledgeable,,1,6353
19,45,within-subtype,7c,7c,mechanic,tools,fairy,wand,4,3492
19,46,between-type,10b,4g,tears,sadness,progressive,stagnant,5,3589
19,47,within-subtype,9d,9d,office,computer,garage,car,7,4282
19,48,within-subtype,10b,10b,tears,sadness,kiss,love,5,3906
19,49,within-subtype,9b,9b,studio,art,restaurant,meals,5,4241
19,50,within-subtype,4g,4g,enthusiastic,lazy,obey,protest,5,3743
19,51,between-subtype,2d,2f,circus,clown,house,roof,2,4857
19,52,within-subtype,3g,3g,pen,pencil,father,mother,5,5869
19,53,within-subtype,8f,8f,punch,pain,food,nourishment,6,4040
19,54,within-subtype,7c,7c,hairdresser,comb,pitcher,baseball,5,3893
20,1,between-subtype,7a,7g,architect,building,blackboard,chalk,1,13740
20,2,between-subtype,5d,5f,happy,contentment,sturdy,strong,5,20603
20,3,within-subtype,10e,10e,dermatology,skin,geology,earth,7,5230
20,4,within-subtype,8h,8h,sunscreen,burns,water,thirst,7,21189
20,5,within-subtype,6e,6e,dead,breathe,confidant,betray,4,25736
20,6,between-subtype,2j,2g,widow,husband,wall,bricks,1,14799
20,7,between-subtype,3b,3f,disdain,hatred,shovel,spoon,1,5861
20,8,between-type,4d,5g,forward,backward,sprint,fast,1,6666
20,9,within-subtype,2c,2c,quarter,pennies,poem,verses,7,12359
20,10,between-subtype,5g,5e,running,fast,water,flow,4,8628
20,11,attention check,,,hummingbird,,hummingbird,,7,10767
20,12,within-subtype,6e,6e,immortal,die,mountain,move,3,12108
20,13,between-subtype,5a,5d,bigot,hateful,provocative,controversy,5,7300
20,14,between-subtype,2c,2h,quarter,pennies,words,letters,6,6402
20,15,within-subtype,7d,7d,eat,food,paint,picture,2,14947
20,16,within-subtype,8h,8h,moisturize,dryness,sunscreen,burns,7,17814
20,17,between-type,3d,4b,chat,gossip,bright,dark,1,7413
20,18,between-subtype,8h,8a,moisturize,dryness,loss,grief,1,9626
20,19,within-subtype,9b,9b,kitchen,food,theater,play,4,12696
20,20,between-subtype,7a,7g,florist,roses,criminal,handcuffs,1,10038
20,21,between-subtype,4f,4h,rage,happiness,fracture,bone,1,4972
20,22,attention check,,,representations,,simultaneously,,1,8095
20,23,within-subtype,6b,6b,irremediable,fixed,impermeable,penetrated,6,18653
20,24,between-subtype,9d,9g,playground,slide,senescence,wheelchair,5,8307
20,25,within-subtype,9f,9f,autumn,equinox,infancy,teething,2,10603
20,26,between-type,8h,2h,locks,theft,mall,shops,1,6958
20,27,within-subtype,5a,5a,plain,flat,mogul,wealth,3,9307
20,28,within-subtype,8h,8h,fungicide,mold,acetaminophen,headache,7,8175
20,29,within-subtype,2a,2a,shoe,sole,clock,hand,6,10015
20,30,within-subtype,4c,4c,fill,empty,peace,war,2,9696
20,31,between-subtype,1e,1b,state,Virginia,shoe,sandal,4,11833
20,32,within-subtype,9a,9a,farm,tractor,bakery,cake,2,9809
20,33,attention check,,,coincidence,,knowledgeable,,1,5966
20,34,between-subtype,2h,2e,bird,wings,baking,mixing,1,5563
20,35,between-subtype,2e,2c,wrapping,taping,book,chapter,1,5763
20,36,between-subtype,6g,6d,stare,intermittently,full,empty,2,11894
20,37,within-subtype,5f,5f,cowardly,surrender,golden,gleam,1,6978
20,38,between-subtype,4h,4g,leukemia,blood,fun,boring,1,5411
20,39,within-subtype,6h,6h,discourage,confident,clean,messy,3,41082
20,40,within-subtype,6h,6h,groom,unkempt,repair,damaged,6,11179
20,41,between-type,7h,2h,driver,license,doctor,phd,7,5736
20,42,within-subtype,9f,9f,winter,snow,winter,cold,4,9853
20,43,between-subtype,8h,8c,fungicide,fungus,electricity,lamp,1,9006
20,44,attention check,,,anthropologist,,anthropologist,,7,7265
20,45,within-subtype,7f,7f,ribbon,winner,receipt,customer,7,5154
20,46,between-type,7a,1e,sculptor,sculpture,planet,Earth,1,6467
20,47,between-type,4f,7d,rage,happiness,donate,charity,1,5060
20,48,between-subtype,6d,6g,old,youth,stutter,steadily,1,13349
20,49,within-subtype,10f,10f,hat,hair,wrapper,package,7,7011
20,50,within-subtype,7a,7a,spinner,yarn,blacksmith,iron,7,7697
20,51,between-subtype,6h,6c,repair,damaged,destitution,abundance,1,8807
20,52,between-subtype,5e,5d,baby,cry,angry,belligerence,1,5743
20,53,between-subtype,8b,8c,disease,medicate,battery,phone,1,7031
20,54,between-subtype,9e,9f,ditch,road,birthday,celebration,1,7945
21,1,between-subtype,4f,4e,evil,angelic,fragile,unbreakable,4,6161
21,2,between-subtype,3d,3h,push,shove,force,pressure,5,3399
21,3,within-subtype,10d,10d,map,journey,choreography,performance,3,3723
21,4,within-subtype,4a,4a,abrasive,smooth,noise,silence,6,4237
21,5,between-type,10d,1d,map,journey,cutlery,forks,5,3105
21,6,between-subtype,10d,10a,outline,paper,crossbones,poison,4,3293
21,7,between-type,1d,2e,animals,cats,bathing,shampooing,5,3381
21,8,within-subtype,8f,8f,medicine,recovery,hug,comfort,4,3077
21,9,within-subtype,4h,4h,miscarriage,pregnancy,pimple,face,3,3388
21,10,between-subtype,6d,6a,invincible,defeated,integrity,dishonest,4,3164
21,11,attention check,,,hummingbird,,hummingbird,,5,3232
21,12,between-subtype,2j,2d,celebrity,privacy,game,referee,4,3004
21,13,between-subtype,8f,8b,food,nourishment,sadness,cry,3,3051
21,14,between-type,4g,6e,obey,protest,glutton,fast,4,3389
21,15,between-subtype,5b,5g,elastic,stretched,laugh,happy,5,3270
21,16,within-subtype,6c,6c,depression,joy,deceit,truth,4,3439
21,17,between-subtype,9f,9i,winter,sledding,vine,grape,3,3128
21,18,within-subtype,7b,7b,preacher,parishioner,parent,child,5,3267
21,19,between-subtype,3c,3b,angry,enraged,silt,sediment,4,3427
21,20,between-subtype,2a,2h,dog,tail,scholar,books,3,3516
21,21,between-subtype,4h,4b,fracture,bone,bright,dark,4,3679
21,22,attention check,,,coincidence,,knowledgeable,,1,10776
21,23,between-subtype,5c,5i,pacifist,peace,stab,wound,5,3913
21,24,between-type,7h,5a,doctor,phd,bigot,hateful,6,4148
21,25,within-subtype,3c,3c,breathe,hyperventilate,chilled,hypothermia,5,4412
21,26,within-subtype,10a,10a,diploma,education,crown,royalty,6,3746
21,27,within-subtype,8d,8d,buy,own,wash,clean,5,4492
21,28,within-subtype,1e,1e,state,Virginia,lake,Michigan,7,4076
21,29,between-subtype,8a,8d,explosion,damage,drink,hydrate,6,3794
21,30,between-subtype,2a,2h,dog,tail,bird,feathers,6,3758
21,31,between-subtype,5f,5e,intransigent,resist,rabbit,hop,3,4021
21,32,between-subtype,9b,9h,lake,fishing,ingestion,digestion,2,4371
21,33,attention check,,,representations,,simultaneously,,1,6148
21,34,within-subtype,7a,7a,chef,ingredients,designer,fashions,6,4154
21,35,within-subtype,9f,9f,winter,cold,war,destruction,6,4567
21,36,between-subtype,8b,8c,coldness,shiver,battery,flashlight,3,4318
21,37,between-type,9g,10e,adolescence,acne,criminology,crimes,5,4474
21,38,between-subtype,5i,5a,smash,flat,pillow,soft,5,3885
21,39,between-subtype,9e,9b,stream,bank,uterus,baby,2,5365
21,40,within-subtype,9b,9b,dairy,milk,school,learning,5,3770
21,41,within-subtype,6e,6e,miser,give,miser,splurge,2,4567
21,42,between-subtype,6f,6g,angry,smile,yell,softly,5,3612
21,43,within-subtype,7c,7c,programmer,computer,barber,scissors,6,3650
21,44,attention check,,,anthropologist,,anthropologist,,7,4114
21,45,within-subtype,10e,10e,anthropology,humans,oceanography,oceans,6,3891
21,46,within-subtype,1b,1b,artwork,sculpture,garment,skirt,6,4674
21,47,between-subtype,5g,5e,laugh,happy,rabbit,hop,6,3942
21,48,within-subtype,10e,10e,mathematics,numbers,anatomy,body,6,4228
21,49,within-subtype,7a,7a,butcher,meat,florist,flowers,6,4100
21,50,within-subtype,2g,2g,house,bricks,sweater,wool,6,3613
21,51,between-subtype,8a,8c,exercise,fitness,water,shower,6,3628
21,52,between-type,7f,6b,tip,waiter,inexorable,halted,5,3636
21,53,within-subtype,9h,9h,step,journey,introduction,speech,6,3578
21,54,within-subtype,6d,6d,pretty,ugly,deceptive,honest,7,5109
22,1,within-subtype,7c,7c,programmer,computer,barber,scissors,7,7378
22,2,between-subtype,5b,5g,elastic,stretched,laugh,happy,1,9588
22,3,between-subtype,3c,3b,angry,enraged,silt,sediment,1,4801
22,4,within-subtype,1b,1b,artwork,sculpture,garment,skirt,6,8164
22,5,between-subtype,6d,6a,invincible,defeated,integrity,dishonest,6,10136
22,6,within-subtype,7a,7a,butcher,meat,florist,flowers,7,4310
22,7,between-subtype,4h,4b,fracture,bone,bright,dark,2,22854
22,8,between-subtype,4f,4e,evil,angelic,fragile,unbreakable,6,8572
22,9,between-subtype,2j,2d,celebrity,privacy,game,referee,2,6602
22,10,between-subtype,8b,8c,coldness,shiver,battery,flashlight,4,6863
22,11,attention check,,,hummingbird,,hummingbird,,7,8950
22,12,between-subtype,9f,9i,winter,sledding,vine,grape,3,6578
22,13,within-subtype,10d,10d,map,journey,choreography,performance,5,6602
22,14,within-subtype,9b,9b,dairy,milk,school,learning,5,7343
22,15,between-type,9g,10e,adolescence,acne,criminology,crimes,1,12141
22,16,between-subtype,8f,8b,food,nourishment,sadness,cry,3,7546
22,17,between-type,1d,2e,animals,cats,bathing,shampooing,2,5176
22,18,between-subtype,5g,5e,laugh,happy,rabbit,hop,3,8257
22,19,between-subtype,5c,5i,pacifist,peace,stab,wound,2,4743
22,20,between-subtype,3d,3h,push,shove,force,pressure,5,8034
22,21,between-type,4g,6e,obey,protest,glutton,fast,6,6261
22,22,attention check,,,representations,,simultaneously,,1,5136
22,23,within-subtype,10a,10a,diploma,education,crown,royalty,6,6307
22,24,within-subtype,7a,7a,chef,ingredients,designer,fashions,5,10749
22,25,within-subtype,6d,6d,pretty,ugly,deceptive,honest,7,5008
22,26,within-subtype,8d,8d,buy,own,wash,clean,7,3958
22,27,between-subtype,10d,10a,outline,paper,crossbones,poison,2,6639
22,28,between-subtype,6f,6g,angry,smile,yell,softly,6,7029
22,29,within-subtype,2g,2g,house,bricks,sweater,wool,7,5709
22,30,within-subtype,4h,4h,miscarriage,pregnancy,pimple,face,3,5733
22,31,within-subtype,7b,7b,preacher,parishioner,parent,child,1,6423
22,32,between-subtype,2a,2h,dog,tail,bird,feathers,5,8227
22,33,attention check,,,coincidence,,knowledgeable,,1,6610
22,34,within-subtype,3c,3c,breathe,hyperventilate,chilled,hypothermia,7,5154
22,35,within-subtype,9h,9h,step,journey,introduction,speech,7,5948
22,36,within-subtype,1e,1e,state,Virginia,lake,Michigan,7,4753
22,37,between-subtype,9e,9b,stream,bank,uterus,baby,4,5845
22,38,between-type,10d,1d,map,journey,cutlery,forks,1,6428
22,39,between-type,7f,6b,tip,waiter,inexorable,halted,1,11725
22,40,between-subtype,9b,9h,lake,fishing,ingestion,digestion,1,6105
22,41,between-subtype,8a,8c,exercise,fitness,water,shower,4,5682
22,42,within-subtype,6c,6c,depression,joy,deceit,truth,7,4988
22,43,between-subtype,2a,2h,dog,tail,scholar,books,5,5922
22,44,attention check,,,anthropologist,,anthropologist,,7,4249
22,45,between-subtype,5i,5a,smash,flat,pillow,soft,2,4990
22,46,within-subtype,8f,8f,medicine,recovery,hug,comfort,6,6864
22,47,between-subtype,8a,8d,explosion,damage,drink,hydrate,6,5153
22,48,within-subtype,10e,10e,anthropology,humans,oceanography,oceans,7,7118
22,49,within-subtype,10e,10e,mathematics,numbers,anatomy,body,6,5259
22,50,between-subtype,5f,5e,intransigent,resist,rabbit,hop,4,6250
22,51,within-subtype,4a,4a,abrasive,smooth,noise,silence,7,7079
22,52,within-subtype,6e,6e,miser,give,miser,splurge,4,8906
22,53,within-subtype,9f,9f,winter,cold,war,destruction,5,6543
22,54,between-type,7h,5a,doctor,phd,bigot,hateful,3,5449
23,1,between-type,6d,2b,old,youth,book,page,1,7677
23,2,within-subtype,9g,9g,toddler,walking,infancy,pacifier,2,7889
23,3,between-type,2h,7h,scholar,books,doctor,phd,6,6771
23,4,within-subtype,7d,7d,paint,canvas,cook,food,7,5332
23,5,between-subtype,2h,2i,scholar,books,famine,food,1,5226
23,6,between-subtype,6a,6d,integrity,dishonest,invincible,defeated,7,5156
23,7,within-subtype,2b,2b,senate,senators,paragraph,word,7,6307
23,8,within-subtype,8b,8b,loneliness,socialize,tiredness,rest,7,5498
23,9,between-subtype,6g,6f,yell,softly,angry,smile,7,4532
23,10,within-subtype,2d,2d,carnival,rides,zoo,animal,7,4803
23,11,attention check,,,coincidence,,knowledgeable,,1,8074
23,12,between-type,6e,3d,doctor,hurt,persuade,coerce,1,5959
23,13,between-subtype,4e,4f,evil,good,earsplitting,quiet,7,4508
23,14,between-subtype,9c,9a,kitchen,cooking,closet,clothing,5,4800
23,15,between-subtype,9h,9c,title,story,library,studying,3,5332
23,16,within-subtype,6h,6h,teach,ignorant,cure,disease,7,5085
23,17,between-subtype,9i,9f,vine,grape,winter,sledding,2,4621
23,18,between-type,1a,9h,animal,pig,narrative,epilogue,2,8508
23,19,within-subtype,3c,3c,chilled,hypothermia,breathe,hyperventilate,1,7326
23,20,between-type,7d,2f,brush,teeth,tree,root,1,12113
23,21,within-subtype,10a,10a,crown,royalty,diploma,education,7,4690
23,22,attention check,,,anthropologist,,anthropologist,,7,6125
23,23,within-subtype,5e,5e,boxer,fight,tree,grow,7,6027
23,24,within-subtype,1d,1d,clothes,shirts,clothes,blouses,7,4848
23,25,within-subtype,7c,7c,barber,scissors,programmer,computer,7,4819
23,26,within-subtype,4h,4h,deafness,hearing,gap,teeth,1,5411
23,27,between-subtype,10a,10b,green,go,laugh,amusement,1,4580
23,28,between-subtype,5g,5f,paint,artistic,buoyant,float,1,5460
23,29,between-subtype,3h,3d,acceleration,speed,hurt,kill,5,7909
23,30,between-subtype,2b,2h,class,student,bird,feathers,7,4457
23,31,between-subtype,8f,8d,exercise,fitness,buy,own,1,5076
23,32,between-subtype,2h,2j,mall,shops,widow,husband,1,4741
23,33,attention check,,,representations,,simultaneously,,1,3945
23,34,within-subtype,7a,7a,blacksmith,iron,poet,words,7,5263
23,35,between-subtype,5h,5e,fix,broken,water,flow,1,4531
23,36,between-subtype,1b,1d,lubricant,oil,clothing,shirts,7,4732
23,37,within-subtype,7e,7e,pay,debtor,preach,disciple,7,5420
23,38,between-subtype,8c,8h,gas,furnace,immunization,disease,1,5089
23,39,within-subtype,7c,7c,fairy,wand,mechanic,tools,7,4316
23,40,within-subtype,5a,5a,pillow,soft,bigot,hateful,7,6588
23,41,within-subtype,3c,3c,nudging,shoving,attraction,lust,3,9249
23,42,within-subtype,7h,7h,marriage,license,charity,donations,2,6308
23,43,between-subtype,6a,6b,rainbow,monochromatic,irreparable,fixed,7,7113
23,44,attention check,,,hummingbird,,hummingbird,,7,4326
23,45,between-subtype,2d,2a,restaurant,chef,house,room,2,4760
23,46,between-subtype,2i,2b,ocean,dryness,arsenal,weapons,1,4257
23,47,between-subtype,2c,2i,book,page,unemployed,job,1,4607
23,48,between-subtype,7c,7d,chemist,beaker,clean,floor,1,4794
23,49,within-subtype,6h,6h,clean,messy,discourage,confident,5,6077
23,50,within-subtype,4d,4d,under,over,rise,sink,7,4603
23,51,within-subtype,8c,8c,battery,flashlight,mouse,computer,3,5035
23,52,between-type,5d,7d,curious,investigation,paint,canvas,1,5482
23,53,within-subtype,9f,9f,war,destruction,winter,cold,7,5648
23,54,between-subtype,5f,5c,unstable,fall,ice,cold,3,5171
24,1,between-subtype,9b,9f,refinery,oil,winter,sledding,4,17542
24,2,between-subtype,2d,2c,party,guests,body,cell,6,11370
24,3,between-subtype,2e,2h,baking,mixing,bird,wings,3,6863
24,4,between-type,3g,2d,father,mother,funeral,corpse,1,10185
24,5,between-subtype,5a,5h,sunburn,painful,drop,slippery,4,9331
24,6,between-subtype,8a,8h,loss,grief,moisturize,dryness,5,13264
24,7,between-type,1d,10d,cutlery,forks,map,journey,5,8021
24,8,within-subtype,7c,7c,pitcher,baseball,hairdresser,comb,7,6448
24,9,within-subtype,8a,8a,germs,sickness,loss,grief,3,7819
24,10,within-subtype,2h,2h,proprietor,employees,employee,job,5,11218
24,11,attention check,,,representations,,simultaneously,,1,12116
24,12,within-subtype,7h,7h,queen,throne,conductor,baton,6,6783
24,13,within-subtype,8h,8h,acetaminophen,headache,fungicide,mold,7,6535
24,14,within-subtype,10e,10e,oceanography,oceans,anthropology,humans,7,5116
24,15,within-subtype,2a,2a,fish,fin,dog,tail,7,5134
24,16,between-subtype,2e,2g,cooking,frying,atmosphere,gas,4,8732
24,17,within-subtype,7d,7d,clean,house,row,boat,5,6091
24,18,between-subtype,5i,5h,poison,die,repair,broken,4,7509
24,19,within-subtype,8f,8f,food,nourishment,punch,pain,5,5512
24,20,within-subtype,2c,2c,poem,verses,quarter,pennies,3,6175
24,21,between-type,2h,8h,mall,shops,locks,theft,6,5931
24,22,attention check,,,coincidence,,knowledgeable,,1,7222
24,23,between-subtype,1b,1e,shoe,sandal,state,Virginia,6,14391
24,24,between-subtype,5a,5i,water,wet,sand,smooth,3,6415
24,25,within-subtype,4f,4f,miniscule,big,ancient,modern,7,6101
24,26,within-subtype,10e,10e,anatomy,body,mathematics,numbers,7,4887
24,27,within-subtype,10d,10d,pattern,dress,map,city,6,5845
24,28,within-subtype,4h,4h,pimple,face,miscarriage,pregnancy,7,7367
24,29,between-subtype,8h,8e,antibiotic,infection,addict,fix,5,6764
24,30,between-subtype,9i,9e,axle,wheel,equator,hemispheres,2,10421
24,31,between-type,9b,8f,factory,product,hug,comfort,4,7765
24,32,between-type,3e,2b,child,adult,class,student,2,6210
24,33,attention check,,,anthropologist,,anthropologist,,7,7679
24,34,between-subtype,8h,8e,rest,exhaustion,farmer,harvest,5,6612
24,35,between-subtype,6h,6a,destroy,alive,careful,reckless,5,9276
24,36,between-subtype,2f,2d,house,roof,circus,clown,3,7958
24,37,between-subtype,6c,6h,destitution,abundance,repair,damaged,1,8816
24,38,within-subtype,9e,9e,edge,cliff,margin,paper,5,9164
24,39,within-subtype,8f,8f,automobile,transportation,food,nourishment,6,6565
24,40,within-subtype,10a,10a,crown,sovereignty,wrinkle,age,6,5487
24,41,within-subtype,9h,9h,shoot,recoil,previews,movie,5,7733
24,42,between-type,1e,7a,planet,Earth,sculptor,sculpture,7,6529
24,43,between-subtype,2d,2j,game,referee,celebrity,privacy,1,7643
24,44,attention check,,,hummingbird,,hummingbird,,7,4465
24,45,within-subtype,7f,7f,medal,hero,education,student,7,8799
24,46,within-subtype,7g,7g,piano,fingers,lock,key,6,6482
24,47,within-subtype,9b,9b,restaurant,meals,studio,art,7,4854
24,48,between-subtype,9e,9g,floor,wall,puberty,hormones,3,5696
24,49,between-subtype,9a,9h,supermarket,groceries,meal,dessert,5,7419
24,50,between-subtype,6b,6a,immortal,die,fire,cold,7,4915
24,51,between-subtype,9g,9d,senescence,wheelchair,playground,slide,1,43251
24,52,within-subtype,2b,2b,school,fish,band,musician,6,5882
24,53,between-subtype,4h,4c,crack,mirror,offend,appease,3,9332
24,54,between-subtype,7g,7a,criminal,handcuffs,florist,roses,3,9098
26,1,between-subtype,2g,2j,cocktail,alcohol,butterfly,cocoon,6,9224
26,2,within-subtype,4h,4h,pimple,skin,miscarriage,pregnancy,4,7167
26,3,between-subtype,9c,9d,bar,drinking,sew,needle,6,5924
26,4,between-subtype,9g,9c,toddler,walking,bar,drinking,3,5257
26,5,within-subtype,5g,5g,sprint,fast,insult,unkind,6,5201
26,6,between-subtype,8f,8g,fire,warmth,knife,cut,5,5004
26,7,between-type,6b,4e,incomprehensible,understood,tedious,interesting,1,6586
26,8,between-subtype,5c,5d,scholar,intelligence,lethargic,fatigue,5,5009
26,9,between-subtype,8a,8g,sweating,odor,shovel,dig,4,5244
26,10,between-type,10a,7h,shriek,panic,adoptee,certificate,4,15613
26,11,attention check,,,anthropologist,,anthropologist,,7,5343
26,12,between-subtype,8d,8b,bathe,clean,dirty,bathe,6,9236
26,13,between-subtype,1b,1e,clothing,sock,ocean,Indian,5,14229
26,14,between-subtype,6b,6a,irreparable,fixed,rainbow,monochromatic,2,19822
26,15,between-subtype,3d,3h,hurt,kill,acceleration,speed,6,9208
26,16,between-subtype,9c,9h,library,studying,title,story,5,5009
26,17,within-subtype,7f,7f,education,student,medal,hero,6,5394
26,18,within-subtype,3h,3h,waning,sunlight,terror,fear,6,12083
26,19,between-type,5c,8f,ice,cold,punch,pain,3,6497
26,20,between-subtype,8e,8d,athlete,medal,breathe,live,6,10305
26,21,within-subtype,6c,6c,dirt,cleanliness,sage,ignorance,6,14745
26,22,attention check,,,hummingbird,,hummingbird,,7,7155
26,23,between-subtype,9h,9f,text,index,birthday,celebration,5,8336
26,24,between-subtype,7a,7h,artist,paint,insured,policy,7,7742
26,25,within-subtype,10c,10c,signature,acknowledgment,recording,sound,6,10161
26,26,between-type,6h,4e,clean,messy,old,young,6,6847
26,27,within-subtype,9d,9d,laboratory,reagents,kitchen,oven,5,8131
26,28,within-subtype,7a,7a,poet,words,blacksmith,iron,7,8233
26,29,between-subtype,9e,9a,ditch,road,cupboard,dishes,3,11227
26,30,between-subtype,2j,2e,husband,bachelorhood,cooking,chopping,1,6189
26,31,within-subtype,2a,2a,dog,tail,flashlight,bulb,3,9612
26,32,within-subtype,7d,7d,row,boat,clean,house,7,5942
26,33,attention check,,,coincidence,,knowledgeable,,1,7346
26,34,between-subtype,7g,7h,paper,pencil,doctor,phd,7,5066
26,35,between-subtype,1e,1c,lake,Erie,fish,trout,7,7297
26,36,between-subtype,9h,9a,meal,dessert,supermarket,groceries,5,5659
26,37,within-subtype,4c,4c,abandon,embrace,attract,repel,7,5589
26,38,within-subtype,7f,7f,gift,recipient,award,winner,7,6338
26,39,within-subtype,9h,9h,narrative,epilogue,introduction,conclusion,7,5059
26,40,between-subtype,5e,5c,tree,grow,idiot,stupidity,3,9579
26,41,within-subtype,3a,3a,pants,trousers,boat,ship,7,7378
26,42,within-subtype,9g,9g,adult,job,adulthood,job,7,6725
26,43,within-subtype,7h,7h,charity,donations,marriage,license,6,6586
26,44,attention check,,,representations,,simultaneously,,1,8582
26,45,within-subtype,6h,6h,groom,unkempt,teach,ignorant,6,14182
26,46,between-subtype,1e,1a,prince,Charles,appliance,refrigerator,7,11422
26,47,between-type,2f,7d,tree,root,brush,teeth,3,6496
26,48,between-type,2g,5i,lawn,grass,divide,parts,2,11849
26,49,within-subtype,2b,2b,band,musician,school,fish,7,5198
26,50,within-subtype,2h,2h,mother,children,words,letters,7,8599
26,51,between-subtype,9d,9e,church,pew,edge,cliff,5,8318
26,52,within-subtype,1d,1d,clothes,blouses,clothes,shirts,7,7894
26,53,within-subtype,5d,5d,pensive,thought,lazy,indolence,2,12480
26,54,within-subtype,5d,5d,pensive,thought,mad,anger,6,12644
27,1,between-subtype,1c,1e,fish,trout,lake,Erie,7,13463
27,2,between-subtype,9g,9h,senescence,wheelchair,introduction,speech,1,17671
27,3,between-type,9f,2e,spring,breeze,therapy,talking,7,7029
27,4,between-type,4c,9i,injure,heal,vine,grape,1,9234
27,5,between-subtype,3e,3h,baby,adult,flood,water,4,13240
27,6,within-subtype,2j,2j,adult,childhood,miscarriage,fetus,1,5994
27,7,between-subtype,2g,2j,wall,bricks,widow,husband,1,9617
27,8,within-subtype,2e,2e,cooking,peeling,knitting,purling,7,7119
27,9,between-type,2h,7h,doctor,phd,driver,license,7,5026
27,10,within-subtype,7f,7f,receipt,customer,ribbon,winner,7,7164
27,11,attention check,,,coincidence,,knowledgeable,,1,16947
27,12,within-subtype,3c,3c,homely,grotesque,confident,arrogance,1,13155
27,13,within-subtype,4h,4h,miscarriage,pregnancy,pimple,skin,1,15545
27,14,between-subtype,4b,4h,bright,dark,fracture,bone,1,9403
27,15,between-type,10e,9g,criminology,crimes,adolescence,acne,1,9505
27,16,between-subtype,9i,9d,shirt,button,garage,wrench,7,6040
27,17,within-subtype,7f,7f,certificate,teacher,donation,charity,4,7322
27,18,within-subtype,5e,5e,fire,burn,baby,cry,7,5960
27,19,between-subtype,5h,5b,consume,edible,wooden,burned,5,14926
27,20,between-subtype,5e,5g,water,flow,running,fast,1,7367
27,21,within-subtype,2d,2d,game,referee,zoo,lion,7,6434
27,22,attention check,,,hummingbird,,hummingbird,,7,10829
27,23,within-subtype,4h,4h,pimple,skin,gap,teeth,7,6169
27,24,between-type,10a,2i,shriek,panic,infinite,end,1,9178
27,25,between-subtype,7b,7c,vet,animal,surgeon,scalpel,2,12936
27,26,within-subtype,7d,7d,teach,student,donate,charity,1,6995
27,27,within-subtype,6e,6e,confidant,betray,dead,breathe,1,7997
27,28,within-subtype,6h,6h,repair,damaged,groom,unkempt,7,6929
27,29,between-type,4a,5a,large,small,tycoon,wealthy,1,6444
27,30,between-subtype,2f,2i,automobile,trunk,jesus,sins,1,6287
27,31,within-subtype,4c,4c,peace,war,fill,empty,7,8582
27,32,within-subtype,2f,2f,tree,branch,house,roof,7,5004
27,33,attention check,,,anthropologist,,anthropologist,,7,9209
27,34,within-subtype,8d,8d,advertise,promote,breathe,live,1,9656
27,35,between-subtype,5h,5f,heal,injured,hot,burn,1,16840
27,36,within-subtype,3d,3d,borrow,take,persuade,coerce,1,10427
27,37,within-subtype,5d,5d,lazy,indolence,pensive,thought,1,9201
27,38,between-subtype,4h,4a,infertility,reproduction,cold,warm,7,6928
27,39,between-subtype,4a,4d,young,old,forward,backward,7,4881
27,40,within-subtype,1e,1e,king,Arthur,prince,Charles,7,7929
27,41,between-subtype,8c,8g,bulb,flashlight,lotion,moisturize,1,10742
27,42,within-subtype,7d,7d,mend,clothing,write,paper,7,6218
27,43,within-subtype,4a,4a,young,old,hot,cold,7,6827
27,44,attention check,,,representations,,simultaneously,,1,7442
27,45,between-subtype,7f,7e,donation,charity,give,receiver,1,7283
27,46,between-subtype,3c,3f,breathing,hyperventilating,pillow,cushion,1,11316
27,47,within-subtype,3b,3b,happiness,joy,chuckle,guffaw,1,6669
27,48,between-subtype,5g,5b,laugh,happy,elastic,stretched,6,14668
27,49,within-subtype,9f,9f,winter,cold,winter,snow,7,7941
27,50,between-subtype,9i,9h,foot,sock,performance,applause,4,11519
27,51,between-subtype,9d,9c,sew,needle,bar,drinking,7,12372
27,52,between-subtype,1e,1c,state,Virginia,beverage,water,7,6534
27,53,between-subtype,5i,5h,iron,pressed,wash,soiled,1,8042
27,54,between-subtype,8g,8a,shovel,dig,sweating,odor,1,7986
28,1,between-subtype,3h,3f,goal,score,ladder,stairs,6,28095
28,2,between-subtype,5d,5f,provocative,controversy,hot,burn,7,6354
28,3,within-subtype,2g,2g,wine,alcohol,atmosphere,gas,2,8815
28,4,between-type,6d,4g,elderly,youth,bright,dull,7,7010
28,5,within-subtype,5g,5g,withdrawal,timid,kissing,loving,7,6735
28,6,between-subtype,8a,8d,injury,pain,sleep,rest,7,7130
28,7,within-subtype,2a,2a,flashlight,bulb,dog,tail,3,6273
28,8,within-subtype,1b,1b,preservative,salt,dish,plate,7,7253
28,9,between-subtype,4g,4d,low,up,forward,backward,6,6222
28,10,within-subtype,8d,8d,wash,clean,buy,own,7,9850
28,11,attention check,,,coincidence,,knowledgeable,,1,7962
28,12,within-subtype,7b,7b,parent,child,accountant,taxpayer,6,8609
28,13,between-subtype,5f,5d,sturdy,strong,happy,contentment,7,7718
28,14,between-type,6h,7b,repair,damaged,salesperson,buyer,7,13342
28,15,within-subtype,5c,5c,winner,victory,pacifist,peace,7,7025
28,16,within-subtype,9i,9i,feet,shoes,axle,wheel,7,4933
28,17,between-subtype,9f,9h,birthday,celebration,text,index,4,12179
28,18,between-subtype,5d,5c,lethargic,fatigue,scholar,intelligence,6,6617
28,19,between-subtype,2i,2d,desert,evergreen,funeral,corpse,2,6530
28,20,between-subtype,2f,2h,supermarket,aisle,bird,feathers,7,6634
28,21,within-subtype,3g,3g,rooster,hen,male,female,7,7401
28,22,attention check,,,representations,,simultaneously,,1,8191
28,23,between-subtype,3h,3e,heat,temperature,child,adult,3,18645
28,24,within-subtype,4e,4e,precise,clumsy,tall,short,7,7354
28,25,within-subtype,10f,10f,curtain,window,bushes,trap,6,9185
28,26,within-subtype,10b,10b,kiss,love,tears,sadness,7,7793
28,27,between-subtype,8f,8d,glue,adhesion,shoot,kill,7,9416
28,28,between-type,9f,6c,summer,vacation,drought,water,5,7395
28,29,within-subtype,7a,7a,florist,flowers,butcher,meat,7,7028
28,30,between-subtype,2c,2j,book,chapter,criminal,lawfulness,1,11260
28,31,within-subtype,6d,6d,invincible,defeated,christian,atheist,6,13632
28,32,between-type,3c,4e,wet,saturated,tall,short,1,13064
28,33,attention check,,,anthropologist,,anthropologist,,7,10933
28,34,between-subtype,5g,5f,hit,aggressive,dense,sink,5,30793
28,35,between-subtype,2j,2g,butterfly,cocoon,cocktail,alcohol,5,13528
28,36,between-subtype,5a,5h,paper,flimsy,help,helpless,2,7087
28,37,between-subtype,2i,2b,desert,water,band,musician,1,9722
28,38,within-subtype,9e,9e,baseboard,wall,bank,river,5,8531
28,39,within-subtype,10d,10d,choreography,performance,map,journey,7,10770
28,40,between-subtype,6a,6d,careful,reckless,plump,thinness,7,11647
28,41,within-subtype,9g,9g,adulthood,job,adult,job,7,6229
28,42,between-subtype,3b,3g,love,adore,canoe,kayak,7,7500
28,43,between-subtype,3b,3c,silt,sediment,angry,enraged,4,9394
28,44,attention check,,,hummingbird,,hummingbird,,7,6083
28,45,within-subtype,5f,5f,golden,gleam,cowardly,surrender,6,6502
28,46,between-subtype,6h,6d,clean,messy,whole,broken,7,6121
28,47,between-subtype,9d,9i,war,weapon,neck,necklace,6,8282
28,48,within-subtype,10f,10f,wrapper,package,hat,hair,3,10717
28,49,within-subtype,5a,5a,sunburn,painful,fire,heat,7,16909
28,50,between-subtype,5d,5g,illogical,confusion,insult,unkind,7,21797
28,51,within-subtype,1e,1e,lake,Michigan,state,Virginia,7,5147
28,52,between-type,1a,4e,rodent,mouse,perplexed,certain,2,30199
28,53,within-subtype,3h,3h,darken,color,decrescendo,sound,6,9288
28,54,between-type,8d,4f,speak,communicate,catastrophic,beneficial,1,6098
29,1,within-subtype,9b,9b,restaurant,meals,studio,art,3,5390
29,2,between-subtype,2d,2j,game,referee,celebrity,privacy,3,4404
29,3,between-subtype,8h,8e,rest,exhaustion,farmer,harvest,2,4205
29,4,between-subtype,9i,9e,axle,wheel,equator,hemispheres,3,4380
29,5,within-subtype,9e,9e,edge,cliff,margin,paper,5,4181
29,6,between-subtype,9e,9g,floor,wall,puberty,hormones,2,4175
29,7,between-subtype,2e,2h,baking,mixing,bird,wings,3,4093
29,8,between-type,1e,7a,planet,Earth,sculptor,sculpture,4,4061
29,9,within-subtype,8h,8h,acetaminophen,headache,fungicide,mold,5,4021
29,10,between-subtype,5a,5i,water,wet,sand,smooth,4,4140
29,11,attention check,,,hummingbird,,hummingbird,,7,6624
29,12,between-subtype,9a,9h,supermarket,groceries,meal,dessert,5,4246
29,13,between-subtype,9b,9f,refinery,oil,winter,sledding,3,3812
29,14,between-subtype,5i,5h,poison,die,repair,broken,6,3797
29,15,between-type,3e,2b,child,adult,class,student,4,4299
29,16,between-subtype,8a,8h,loss,grief,moisturize,dryness,3,4123
29,17,between-type,9b,8f,factory,product,hug,comfort,4,3916
29,18,between-subtype,6h,6a,destroy,alive,careful,reckless,5,4268
29,19,within-subtype,7h,7h,queen,throne,conductor,baton,3,3813
29,20,between-subtype,7g,7a,criminal,handcuffs,florist,roses,4,3757
29,21,within-subtype,8a,8a,germs,sickness,loss,grief,5,3774
29,22,attention check,,,coincidence,,knowledgeable,,1,4020
29,23,within-subtype,7f,7f,medal,hero,education,student,5,3779
29,24,within-subtype,8f,8f,automobile,transportation,food,nourishment,5,3853
29,25,between-subtype,1b,1e,shoe,sandal,state,Virginia,4,3941
29,26,between-type,1d,10d,cutlery,forks,map,journey,4,4229
29,27,between-subtype,9g,9d,senescence,wheelchair,playground,slide,3,3669
29,28,within-subtype,7g,7g,piano,fingers,lock,key,6,3693
29,29,between-subtype,4h,4c,crack,mirror,offend,appease,4,4107
29,30,within-subtype,10e,10e,oceanography,oceans,anthropology,humans,6,4601
29,31,between-subtype,2f,2d,house,roof,circus,clown,4,4371
29,32,between-subtype,6b,6a,immortal,die,fire,cold,5,13884
29,33,attention check,,,representations,,simultaneously,,1,3921
29,34,between-subtype,2e,2g,cooking,frying,atmosphere,gas,5,3981
29,35,between-type,3g,2d,father,mother,funeral,corpse,3,3778
29,36,between-type,2h,8h,mall,shops,locks,theft,4,3916
29,37,within-subtype,4h,4h,pimple,face,miscarriage,pregnancy,5,4130
29,38,between-subtype,2d,2c,party,guests,body,cell,4,4302
29,39,within-subtype,10a,10a,crown,sovereignty,wrinkle,age,5,5095
29,40,within-subtype,8f,8f,food,nourishment,punch,pain,4,3861
29,41,within-subtype,4f,4f,miniscule,big,ancient,modern,4,11414
29,42,within-subtype,2b,2b,school,fish,band,musician,5,3846
29,43,within-subtype,10d,10d,pattern,dress,map,city,5,14003
29,44,attention check,,,anthropologist,,anthropologist,,7,4622
29,45,within-subtype,7d,7d,clean,house,row,boat,4,4033
29,46,within-subtype,2h,2h,proprietor,employees,employee,job,5,3356
29,47,within-subtype,7c,7c,pitcher,baseball,hairdresser,comb,4,3438
29,48,between-subtype,5a,5h,sunburn,painful,drop,slippery,3,3597
29,49,within-subtype,2c,2c,poem,verses,quarter,pennies,4,8364
29,50,within-subtype,9h,9h,shoot,recoil,previews,movie,5,3537
29,51,between-subtype,6c,6h,destitution,abundance,repair,damaged,4,3515
29,52,between-subtype,8h,8e,antibiotic,infection,addict,fix,5,3602
29,53,within-subtype,10e,10e,anatomy,body,mathematics,numbers,4,4063
29,54,within-subtype,2a,2a,fish,fin,dog,tail,6,3835
30,1,between-subtype,4g,4h,fun,boring,leukemia,blood,1,11710
30,2,between-type,7d,4f,donate,charity,rage,happiness,1,15832
30,3,between-subtype,5e,5g,rabbit,hop,laugh,happy,1,21835
30,4,within-subtype,8h,8h,sun,darkness,immunization,disease,5,7483
30,5,between-type,6c,2a,slavery,freedom,movie,scene,5,5475
30,6,between-subtype,5d,5e,angry,belligerence,baby,cry,4,6675
30,7,within-subtype,9d,9d,kitchen,oven,laboratory,reagents,3,8523
30,8,within-subtype,8f,8f,hug,comfort,medicine,recovery,6,6123
30,9,within-subtype,6c,6c,deceit,truth,depression,joy,5,8003
30,10,within-subtype,8b,8b,pain,medicate,loneliness,socialize,3,6052
30,11,attention check,,,anthropologist,,anthropologist,,7,18255
30,12,between-subtype,7a,7c,florist,flowers,writer,pen,5,18200
30,13,within-subtype,1b,1b,garment,skirt,artwork,sculpture,4,5381
30,14,within-subtype,5a,5a,water,wet,murderer,evil,5,5947
30,15,within-subtype,7d,7d,sweep,floor,clean,house,4,12540
30,16,between-subtype,2h,2a,bird,feathers,dog,tail,4,6890
30,17,between-subtype,10b,10a,yawn,boredom,license,permission,5,5628
30,18,between-subtype,5i,5h,fire,burnt,comfort,hurting,4,6483
30,19,within-subtype,3b,3b,jog,run,affection,love,6,6419
30,20,between-subtype,6e,6a,confidant,betray,love,hating,4,5219
30,21,within-subtype,3c,3c,angry,enraged,breathe,hyperventilate,4,8300
30,22,attention check,,,representations,,simultaneously,,1,9304
30,23,between-subtype,2h,2a,scholar,books,dog,tail,4,10230
30,24,between-subtype,7f,7e,check,employee,lecture,child,3,7875
30,25,between-subtype,3d,3b,exaggerate,lie,ennui,boredom,2,5708
30,26,within-subtype,7e,7e,preach,disciple,perform,audience,3,7412
30,27,within-subtype,3a,3a,raise,elevate,house,dwelling,6,7460
30,28,between-subtype,8d,8c,burnish,shine,chemical,firework,3,6378
30,29,between-subtype,8d,8e,breathe,live,athlete,medal,4,5036
30,30,between-subtype,8b,8f,sadness,cry,food,nourishment,5,7580
30,31,within-subtype,9b,9b,theater,play,kitchen,food,5,6637
30,32,between-type,2g,5g,meal,food,withdrawal,timid,4,6987
30,33,attention check,,,hummingbird,,hummingbird,,7,5528
30,34,within-subtype,8h,8h,sunscreen,burns,moisturize,dryness,4,5567
30,35,within-subtype,5f,5f,golden,gleam,round,roll,4,7724
30,36,within-subtype,9h,9h,introduction,conclusion,narrative,epilogue,3,5699
30,37,between-type,8f,5c,punch,pain,ice,cold,5,5476
30,38,between-subtype,1d,1e,birds,crows,city,Dallas,6,10211
30,39,within-subtype,5a,5a,diamond,shiny,mogul,wealth,6,7612
30,40,between-subtype,7c,7g,surgeon,scalpel,carpet,vacuum,5,4435
30,41,within-subtype,7e,7e,instruct,subordinate,inspire,follower,3,6203
30,42,between-subtype,8c,8h,electricity,lamp,fungicide,fungus,5,5939
30,43,between-subtype,4e,4f,perplexed,certain,sterile,dirty,3,6076
30,44,attention check,,,coincidence,,knowledgeable,,1,10369
30,45,within-subtype,9f,9f,infancy,teething,autumn,equinox,2,8429
30,46,between-type,7b,8d,salesperson,customer,shoot,kill,3,7261
30,47,between-type,4f,10c,disastrous,peaceful,recording,sound,3,7844
30,48,within-subtype,10a,10a,wrinkle,age,cross,faith,4,4795
30,49,within-subtype,10c,10c,recording,sound,signature,acknowledgment,4,7804
30,50,within-subtype,4g,4g,bright,dark,smiling,sad,3,10276
30,51,between-subtype,9g,9a,senescence,cane,aquarium,fish,4,6285
30,52,between-subtype,5e,5g,dynamite,explode,excitement,happy,4,4715
30,53,between-subtype,6h,6g,wash,dirty,speed,slowly,3,5060
30,54,between-subtype,2i,2g,bird,lips,wall,bricks,3,6316
31,1,between-subtype,9h,9a,meal,dessert,supermarket,groceries,1,6494
31,2,within-subtype,4h,4h,pimple,skin,miscarriage,pregnancy,3,6884
31,3,between-subtype,5c,5d,scholar,intelligence,lethargic,fatigue,6,5102
31,4,within-subtype,5d,5d,pensive,thought,lazy,indolence,3,7813
31,5,between-subtype,9g,9c,toddler,walking,bar,drinking,4,4900
31,6,between-subtype,9h,9f,text,index,birthday,celebration,5,5085
31,7,between-type,6h,4e,clean,messy,old,young,7,4268
31,8,within-subtype,4c,4c,abandon,embrace,attract,repel,7,4637
31,9,within-subtype,7d,7d,row,boat,clean,house,6,5621
31,10,between-subtype,2j,2e,husband,bachelorhood,cooking,chopping,3,4918
31,11,attention check,,,representations,,simultaneously,,1,6597
31,12,between-subtype,7a,7h,artist,paint,insured,policy,1,6135
31,13,within-subtype,3h,3h,waning,sunlight,terror,fear,1,5406
31,14,within-subtype,2b,2b,band,musician,school,fish,6,4558
31,15,between-subtype,5e,5c,tree,grow,idiot,stupidity,1,4590
31,16,within-subtype,6c,6c,dirt,cleanliness,sage,ignorance,7,5230
31,17,between-type,10a,7h,shriek,panic,adoptee,certificate,5,4973
31,18,between-subtype,3d,3h,hurt,kill,acceleration,speed,6,4830
31,19,between-subtype,9c,9h,library,studying,title,story,3,5134
31,20,within-subtype,7h,7h,charity,donations,marriage,license,3,5534
31,21,within-subtype,7f,7f,gift,recipient,award,winner,7,4014
31,22,attention check,,,hummingbird,,hummingbird,,7,4385
31,23,between-subtype,9d,9e,church,pew,edge,cliff,2,5194
31,24,within-subtype,6h,6h,groom,unkempt,teach,ignorant,6,4702
31,25,between-subtype,1b,1e,clothing,sock,ocean,Indian,7,6438
31,26,between-type,2f,7d,tree,root,brush,teeth,1,4581
31,27,between-subtype,7g,7h,paper,pencil,doctor,phd,1,4558
31,28,within-subtype,9g,9g,adult,job,adulthood,job,6,5246
31,29,between-type,2g,5i,lawn,grass,divide,parts,4,5278
31,30,between-subtype,8e,8d,athlete,medal,breathe,live,1,4845
31,31,within-subtype,1d,1d,clothes,blouses,clothes,shirts,7,4470
31,32,within-subtype,2h,2h,mother,children,words,letters,2,5766
31,33,attention check,,,anthropologist,,anthropologist,,7,4159
31,34,between-subtype,8d,8b,bathe,clean,dirty,bathe,1,5919
31,35,within-subtype,7f,7f,education,student,medal,hero,4,6199
31,36,between-subtype,2g,2j,cocktail,alcohol,butterfly,cocoon,1,5558
31,37,within-subtype,10c,10c,signature,acknowledgment,recording,sound,6,4422
31,38,within-subtype,7a,7a,poet,words,blacksmith,iron,7,5470
31,39,between-subtype,9c,9d,bar,drinking,sew,needle,3,6566
31,40,between-subtype,1e,1a,prince,Charles,appliance,refrigerator,7,5397
31,41,between-type,6b,4e,incomprehensible,understood,tedious,interesting,7,4541
31,42,between-subtype,9e,9a,ditch,road,cupboard,dishes,1,4533
31,43,within-subtype,3a,3a,pants,trousers,boat,ship,5,4982
31,44,attention check,,,coincidence,,knowledgeable,,1,5017
31,45,between-type,5c,8f,ice,cold,punch,pain,5,5310
31,46,between-subtype,6b,6a,irreparable,fixed,rainbow,monochromatic,7,4534
31,47,within-subtype,9h,9h,narrative,epilogue,introduction,conclusion,5,4454
31,48,within-subtype,5d,5d,pensive,thought,mad,anger,5,4654
31,49,within-subtype,5g,5g,sprint,fast,insult,unkind,7,8438
31,50,between-subtype,8f,8g,fire,warmth,knife,cut,6,5590
31,51,within-subtype,9d,9d,laboratory,reagents,kitchen,oven,3,5461
31,52,within-subtype,2a,2a,dog,tail,flashlight,bulb,4,5694
31,53,between-subtype,8a,8g,sweating,odor,shovel,dig,1,5526
31,54,between-subtype,1e,1c,lake,Erie,fish,trout,7,4591
32,1,between-type,10c,4f,crown,king,freezing,warm,7,6371
32,2,within-subtype,3h,3h,terror,fear,waning,sunlight,4,10965
32,3,between-subtype,6b,6e,inexorable,halted,immortal,die,5,27668
32,4,between-subtype,5e,5f,rabbit,hop,intransigent,resist,3,4935
32,5,between-subtype,2g,2a,house,bricks,bicycle,wheel,6,18572
32,6,within-subtype,1e,1e,city,Memphis,planet,Earth,7,5148
32,7,between-subtype,9g,9e,adulthood,job,margin,paper,3,5228
32,8,between-subtype,6a,6g,baby,mature,cooperate,defiantly,7,4964
32,9,between-subtype,5d,5c,emotional,turmoil,psychotic,insanity,6,4540
32,10,within-subtype,6e,6e,immortal,die,cat,bark,7,7269
32,11,attention check,,,hummingbird,,hummingbird,,7,14368
32,12,within-subtype,9d,9d,garage,car,office,computer,6,14053
32,13,within-subtype,4g,4g,obey,protest,enthusiastic,lazy,5,5518
32,14,within-subtype,4e,4e,lazy,productive,mobile,inert,6,7741
32,15,within-subtype,6h,6h,teach,ignorant,groom,unkempt,6,6242
32,16,within-subtype,6b,6b,impermeable,penetrated,irremediable,fixed,6,27708
32,17,within-subtype,5d,5d,mad,anger,pensive,thought,6,4179
32,18,within-subtype,5d,5d,drunk,intoxication,pensive,thought,7,4692
32,19,between-subtype,8b,8d,dirty,bathe,bathe,clean,2,5628
32,20,between-subtype,6h,6g,discourage,confident,hurry,lazily,6,5956
32,21,between-type,6e,4g,glutton,fast,obey,protest,6,7358
